Timestamp,AccX,AccY,AccZ,Heart_IR,Phase
0.001584768295288086,-1390,1258,585,106730,0
0.03983950614929199,-1367,1250,584,106673,0
0.08029627799987793,-1262,1210,571,106644,0
0.11990547180175781,-1167,1152,569,106698,0
0.16022944450378418,-1184,1099,512,106764,0
0.19978713989257812,-928,993,444,106840,0
0.23972821235656738,-874,830,448,106827,0
0.2799098491668701,-943,675,478,106812,0
0.31971192359924316,-1037,513,518,106775,0
0.3598799705505371,-1618,405,611,106763,0
0.39983630180358887,-1523,159,582,106753,0
0.43972277641296387,-1905,26,743,106754,0
0.47970128059387207,-1712,-294,568,106799,0
0.5187718868255615,-2038,-422,743,106837,0
0.5587327480316162,-2004,-633,768,106838,0
0.663496732711792,-2410,-934,531,106863,0
0.6649181842803955,-2701,-1126,314,106735,0
0.6788666248321533,-2460,-1118,338,106356,0
0.7186450958251953,-2012,-1305,247,106112,0
0.7586226463317871,-1871,-1489,-106,106060,0
0.7986404895782471,-1783,-1639,-175,106023,0
0.8386883735656738,-1729,-1749,-339,105929,0
0.8787355422973633,-1670,-1771,-552,105880,0
0.9186663627624512,-1585,-1731,-572,105830,0
0.9586009979248047,-1528,-1692,-594,105793,0
0.9985988140106201,-1406,-1675,-484,105768,0
1.0386147499084473,-1355,-1641,-364,105777,0
1.077625036239624,-1245,-1613,-270,105783,0
1.1180202960968018,-1163,-1636,-339,105808,0
1.1576285362243652,-1184,-1620,-274,105829,0
1.1979634761810303,-1269,-1590,-222,105835,0
1.2376086711883545,-1313,-1598,-244,105829,0
1.277608871459961,-1323,-1619,-243,105839,0
1.3175644874572754,-1330,-1620,-227,105825,0
1.35762357711792,-1373,-1599,-162,105819,0
1.397592544555664,-1371,-1609,-154,105789,0
1.437598705291748,-1358,-1619,-87,105775,0
1.4777028560638428,-1414,-1554,20,105747,0
1.517754316329956,-1296,-1569,28,105727,0
1.5576012134552002,-1262,-1594,-18,105718,0
1.59684157371521,-1297,-1562,110,105726,0
1.6368260383605957,-1275,-1539,262,105704,0
1.6766440868377686,-1185,-1541,274,105438,0
1.716590404510498,-1249,-1482,399,105147,0
1.756594181060791,-1149,-1460,576,105008,0
1.796581745147705,-1167,-1472,535,104959,0
1.836534023284912,-1215,-1529,404,104903,0
1.8767850399017334,-1272,-1542,446,104824,0
1.91668701171875,-1254,-1598,520,104751,0
1.9565560817718506,-1218,-1539,773,104664,0
1.9966011047363281,-1300,-1427,1164,104606,0
2.036553382873535,-1330,-1457,1067,104545,0
2.077451467514038,-1204,-1538,813,104545,0
2.116724729537964,-1215,-1552,593,104541,0
2.1556878089904785,-1230,-1534,499,104514,0
2.195726156234741,-1215,-1535,430,104471,0
2.2355706691741943,-1195,-1563,330,104436,0
2.2755331993103027,-1220,-1561,255,104435,0
2.3155829906463623,-1252,-1567,226,104434,0
2.35555362701416,-1269,-1553,276,104441,0
2.395664930343628,-1312,-1536,386,104452,0
2.4355392456054688,-1330,-1521,473,104441,0
2.4755449295043945,-1343,-1510,507,104417,0
2.5155818462371826,-1336,-1527,492,104384,0
2.555565357208252,-1294,-1548,500,104366,0
2.5957083702087402,-1264,-1552,474,104068,0
2.6355485916137695,-1270,-1549,456,103769,0
2.6757028102874756,-1259,-1560,437,103629,0
2.7145564556121826,-1256,-1559,404,103582,0
2.754530668258667,-1233,-1554,399,103542,0
2.7947866916656494,-1224,-1562,397,103483,0
2.834535598754883,-1223,-1560,410,103456,0
2.874539375305176,-1245,-1554,418,103396,0
2.9145724773406982,-1258,-1543,446,103334,0
2.954583168029785,-1269,-1540,484,103289,0
2.994671583175659,-1282,-1537,480,103261,0
3.034599542617798,-1278,-1543,470,103252,0
3.07462739944458,-1270,-1549,450,103237,0
3.1145901679992676,-1260,-1542,448,103252,0
3.1545443534851074,-1256,-1556,453,103261,0
3.195085287094116,-1251,-1556,440,103290,0
3.2345683574676514,-1241,-1552,452,103301,0
3.273550510406494,-1258,-1542,452,103347,0
3.3135385513305664,-1258,-1547,455,103379,0
3.3535938262939453,-1275,-1529,480,103422,0
3.3935465812683105,-1273,-1531,491,103459,0
3.433591842651367,-1278,-1539,481,103489,0
3.473548173904419,-1258,-1535,468,103527,0
3.5139048099517822,-1251,-1548,473,103549,0
3.553541898727417,-1249,-1567,462,103535,0
3.5936410427093506,-1257,-1537,439,103253,0
3.6336042881011963,-1243,-1533,471,102992,0
3.6735854148864746,-1263,-1553,477,102849,0
3.713747501373291,-1279,-1544,478,102851,0
3.7535669803619385,-1273,-1530,471,102850,0
3.7926552295684814,-1245,-1526,489,102836,0
3.8325541019439697,-1266,-1543,467,102822,0
3.8725576400756836,-1264,-1528,472,102783,0
3.9126524925231934,-1275,-1544,457,102766,0
3.9525511264801025,-1250,-1555,462,102764,0
3.992575168609619,-1237,-1546,460,102794,0
4.032550096511841,-1255,-1533,464,102818,0
4.072570562362671,-1241,-1542,448,102838,0
4.112592935562134,-1278,-1523,475,102830,0
4.152563095092773,-1291,-1520,481,102862,0
4.1925437450408936,-1293,-1534,469,102853,0
4.232650995254517,-1290,-1547,472,102903,0
4.27257227897644,-1264,-1545,469,102949,0
4.312169075012207,-1254,-1540,483,102977,0
4.3515918254852295,-1241,-1546,470,103014,0
4.391567230224609,-1244,-1548,448,103052,0
4.431560516357422,-1278,-1545,446,103106,0
4.4715352058410645,-1275,-1533,465,103153,0
4.511723279953003,-1262,-1542,461,103213,0
4.551543951034546,-1235,-1584,446,103245,0
4.5915656089782715,-1250,-1546,453,103068,0
4.63162636756897,-1234,-1538,482,102810,0
4.671554327011108,-1256,-1536,493,102664,0
4.7116804122924805,-1261,-1542,463,102677,0
4.751545429229736,-1279,-1508,463,102670,0
4.791546821594238,-1238,-1527,453,102729,0
4.831532001495361,-1253,-1541,437,102762,0
4.870524168014526,-1269,-1533,424,102746,0
4.910741329193115,-1299,-1522,462,102716,0
4.950566291809082,-1265,-1531,465,102720,0
4.9905455112457275,-1277,-1541,458,102775,0
5.030539512634277,-1277,-1537,485,102837,0
5.070519924163818,-1272,-1541,493,102901,0
5.110762596130371,-1259,-1536,490,102930,0
5.150547742843628,-1258,-1550,482,102960,0
5.190531969070435,-1264,-1533,477,102975,0
5.230544567108154,-1267,-1548,437,102978,0
5.270559310913086,-1257,-1548,455,103004,0
5.310864686965942,-1252,-1553,451,103036,0
5.350546360015869,-1236,-1554,452,103102,0
5.390563011169434,-1234,-1558,484,103150,0
5.429563283920288,-1261,-1561,457,103031,0
5.469597101211548,-1265,-1546,474,102826,0
5.509601831436157,-1262,-1536,498,102712,0
5.549566030502319,-1275,-1544,475,102735,0
5.5895678997039795,-1268,-1533,453,102770,0
5.629573822021484,-1252,-1533,462,102820,0
5.669624328613281,-1255,-1554,449,102830,0
5.710010051727295,-1273,-1537,449,102802,0
5.749581813812256,-1258,-1540,469,102768,0
5.7895495891571045,-1246,-1554,457,102738,0
5.829691171646118,-1258,-1557,461,102758,0
5.869550466537476,-1275,-1542,473,102807,0
5.909632921218872,-1246,-1543,479,102876,0
5.949572563171387,-1270,-1549,455,102925,0
5.988582372665405,-1254,-1539,462,102983,0
6.028675317764282,-1263,-1537,466,103013,0
6.068584442138672,-1261,-1540,461,103062,0
6.108537435531616,-1269,-1540,462,103124,0
6.148609638214111,-1258,-1538,461,103178,0
6.188594579696655,-1264,-1546,471,103237,0
6.228561878204346,-1245,-1526,456,103286,0
6.268595933914185,-1249,-1558,472,103321,0
6.308629989624023,-1253,-1551,439,103221,0
6.348569631576538,-1256,-1532,451,102965,0
6.38855242729187,-1264,-1536,480,102813,0
6.428659677505493,-1274,-1537,485,102782,0
6.468575477600098,-1282,-1543,465,102832,0
6.508617401123047,-1259,-1536,471,102858,0
6.547585725784302,-1254,-1542,481,102890,0
6.600533485412598,-1268,-1548,458,102905,0
6.627851486206055,-1271,-1545,471,102901,0
6.6675965785980225,-1252,-1543,483,102912,0
6.707778453826904,-1258,-1552,466,102945,0
6.747698068618774,-1260,-1539,462,103013,0
6.787626028060913,-1260,-1545,477,103049,0
6.828357219696045,-1250,-1550,474,103087,0
6.867546558380127,-1252,-1548,463,103092,0
6.907652378082275,-1259,-1543,461,103127,0
6.947565793991089,-1263,-1538,460,103153,0
6.98757004737854,-1278,-1540,460,103199,0
7.027747631072998,-1261,-1535,469,103256,0
7.06656813621521,-1264,-1529,471,103304,0
7.106620788574219,-1267,-1542,465,103353,0
7.146558046340942,-1270,-1538,473,103393,0
7.186583995819092,-1270,-1532,470,103472,0
7.226635456085205,-1257,-1546,470,103524,0
7.266545057296753,-1267,-1549,449,103456,0
7.306631326675415,-1255,-1534,458,103211,0
7.346708297729492,-1241,-1546,473,103040,0
7.386570453643799,-1259,-1548,471,103011,0
7.426698446273804,-1281,-1536,472,102996,0
7.466580629348755,-1249,-1540,478,103009,0
7.50659704208374,-1252,-1543,479,103000,0
7.546539306640625,-1280,-1532,452,103006,0
7.586574554443359,-1263,-1530,458,102998,0
7.625652074813843,-1259,-1536,468,102977,0
7.6665449142456055,-1263,-1544,447,103016,0
7.705590009689331,-1273,-1552,455,103086,0
7.745619297027588,-1257,-1541,486,103142,0
7.78557825088501,-1257,-1543,485,103164,0
7.825577974319458,-1257,-1548,470,103205,0
7.86586332321167,-1265,-1532,471,103227,0
7.90566873550415,-1261,-1538,457,103256,0
7.947843790054321,-1271,-1532,462,103268,0
7.9855875968933105,-1255,-1531,475,103315,0
8.025572538375854,-1266,-1535,446,103332,0
8.065585374832153,-1258,-1548,464,103401,0
8.105594635009766,-1275,-1557,466,103320,0
8.14488410949707,-1250,-1536,468,103120,0
8.184574604034424,-1263,-1555,465,103034,0
8.224555969238281,-1263,-1544,477,103065,0
8.264581203460693,-1259,-1531,473,103112,0
8.304583072662354,-1252,-1537,467,103129,0
8.344613552093506,-1265,-1534,458,103208,0
8.38457727432251,-1281,-1537,441,103178,0
8.424558162689209,-1265,-1540,453,103148,0
8.464595317840576,-1266,-1534,461,103146,0
8.50467300415039,-1256,-1541,466,103158,0
8.544633865356445,-1262,-1539,481,103203,0
8.584610223770142,-1257,-1539,476,103234,0
8.624635219573975,-1252,-1551,464,103291,0
8.664589643478394,-1256,-1547,461,103327,0
8.703593969345093,-1274,-1544,455,103373,0
8.743635177612305,-1261,-1529,453,103415,0
8.783597707748413,-1275,-1529,457,103473,0
8.823758840560913,-1273,-1539,455,103533,0
8.86363172531128,-1274,-1539,460,103585,0
8.903578281402588,-1271,-1532,467,103643,0
8.943739414215088,-1262,-1538,451,103691,0
8.98359727859497,-1246,-1542,463,103745,0
9.023644924163818,-1265,-1551,454,103731,0
9.063576221466064,-1283,-1534,429,103483,0
9.103624820709229,-1251,-1538,459,103272,0
9.143638610839844,-1267,-1538,475,103209,0
9.18366003036499,-1282,-1539,455,103272,0
9.223582983016968,-1259,-1529,464,103288,0
9.262639045715332,-1248,-1536,462,103292,0
9.302605390548706,-1276,-1550,442,103299,0
9.342604398727417,-1283,-1537,448,103302,0
9.382633209228516,-1257,-1536,479,103310,0
9.42261815071106,-1251,-1540,473,103307,0
9.462715148925781,-1283,-1547,445,103369,0
9.502593517303467,-1262,-1535,476,103404,0
9.542623281478882,-1251,-1533,473,103425,0
9.582581520080566,-1263,-1537,458,103447,0
9.622594833374023,-1279,-1538,442,103445,0
9.662598133087158,-1277,-1531,462,103466,0
9.702596426010132,-1276,-1532,464,103480,0
9.742599725723267,-1275,-1524,460,103543,0
9.782572746276855,-1269,-1536,474,103591,0
9.821576833724976,-1271,-1542,464,103656,0
9.862096071243286,-1264,-1541,457,103696,0
9.901588678359985,-1252,-1547,459,103746,0
9.941599607467651,-1261,-1541,456,103787,0
9.981598138809204,-1268,-1545,464,103831,0
10.02157974243164,-1255,-1534,462,103891,0
10.061798810958862,-1328,-1526,509,103914,0
10.101589679718018,-1559,-1497,550,103767,0
10.141597986221313,-1888,-1406,651,103490,0
10.181610822677612,-2219,-1374,963,103352,0
10.22167158126831,-2497,-1351,1119,103344,0
10.261899471282959,-3120,-1375,1090,103345,0
10.30159616470337,-3108,-1430,1073,103318,0
10.340585708618164,-3209,-1273,933,103318,0
10.380568027496338,-3057,-1029,591,103329,0
10.420553207397461,-2917,-672,519,103336,0
10.460976362228394,-2417,-512,168,103396,0
10.500577926635742,-1726,-320,58,103519,0
10.54059886932373,-1468,-69,-80,103640,0
10.580584526062012,-1065,122,-184,103791,0
10.620575428009033,-738,338,-66,103916,0
10.660676956176758,-590,704,60,104004,0
10.700584411621094,-332,893,111,104091,0
10.740633487701416,-358,1275,221,104217,0
10.780611276626587,-211,1417,365,104343,0
10.820638418197632,-54,1604,387,104528,0
10.860756635665894,-123,1814,506,104742,0
10.89958930015564,12,1866,422,104953,0
10.939608573913574,-78,1886,257,105154,0
10.97975468635559,-82,1940,276,105315,0
11.019625902175903,-100,1935,267,105424,0
11.05976939201355,-16,1926,249,105103,0
11.099615335464478,-34,1896,421,104520,0
11.139676332473755,-91,1922,516,104451,0
11.181527137756348,-102,1835,458,104557,0
11.219575643539429,-121,1746,455,104624,0
11.260224103927612,-185,1760,438,104655,0
11.299602031707764,-72,1916,238,104725,0
11.339568853378296,90,2208,7,104750,0
11.379757165908813,63,2332,28,104763,0
11.4196035861969,-152,2315,35,104829,0
11.458637714385986,-30,2210,289,104921,0
11.498857498168945,-5,2098,411,105026,0
11.53860354423523,14,2151,473,105118,0
11.57942247390747,119,1991,507,105205,0
11.618597269058228,302,2011,465,105289,0
11.658584833145142,56,1965,585,105383,0
11.698614358901978,178,1883,556,105487,0
11.738590002059937,12,1672,489,105570,0
11.778809070587158,-438,1700,264,105637,0
11.818626165390015,-387,1682,187,105706,0
11.858628511428833,-554,1691,126,105791,0
11.8986074924469,-111,1935,175,105850,0
11.938712358474731,37,2280,284,105561,0
11.978826999664307,112,2410,231,104969,0
12.017590761184692,25,2316,321,104871,0
12.05759334564209,46,2008,369,104996,0
12.09793472290039,69,1657,351,105124,0
12.137640237808228,-63,1595,235,105186,0
12.177959442138672,-9,1679,214,105273,0
12.217670917510986,-83,1925,201,105301,0
12.257630109786987,-102,2206,247,105295,0
12.297616720199585,-275,2372,226,105359,0
12.3376784324646,-336,2405,228,105478,0
12.377923965454102,-370,2274,225,105651,0
12.417678594589233,-276,2013,132,105742,0
12.457717895507812,-51,1760,17,105801,0
12.497671365737915,68,1730,-29,105859,0
12.53660774230957,32,1838,14,105922,0
12.576688051223755,-121,2022,89,106000,0
12.616649866104126,-351,2220,197,106088,0
12.65662932395935,-488,2306,263,106183,0
12.696904182434082,-447,2194,199,106268,0
12.7366304397583,-271,2020,121,106333,0
12.776602745056152,-68,1849,67,106314,0
12.816664218902588,-21,1826,61,105728,0
12.856639385223389,-126,1940,105,105308,0
12.896788120269775,-275,2051,166,105314,0
12.93666958808899,-401,2113,165,105476,0
12.97724199295044,-455,2132,176,105569,0
13.016657829284668,-338,2084,182,105681,0
13.056657075881958,-262,2000,119,105775,0
13.095823764801025,-193,1912,51,105769,0
13.135655879974365,-209,1946,73,105744,0
13.175644159317017,-202,1984,127,105812,0
13.220812320709229,-323,2050,152,105973,0
13.255598068237305,-373,2062,154,106137,0
13.295638799667358,-366,2054,123,106250,0
13.335609197616577,-292,2043,152,106316,0
13.375583410263062,-212,1985,111,106366,0
13.415620565414429,-201,1985,98,106415,0
13.45561671257019,-210,1972,106,106418,0
13.495649814605713,-277,1981,119,106499,0
13.535605430603027,-310,2009,103,106544,0
13.575616598129272,-316,2024,109,106440,0
13.615592956542969,-323,2037,141,105794,0
13.65459156036377,-330,2038,152,105548,0
13.694886922836304,-284,2019,138,105645,0
13.734601497650146,-274,2012,124,105795,0
13.774667024612427,-269,1994,119,105877,0
13.814598321914673,-287,1998,112,105975,0
13.85461711883545,-289,2029,125,106024,0
13.894705057144165,-270,2027,116,105994,0
13.934590816497803,-289,2029,117,105973,0
13.974654197692871,-255,2009,119,106022,0
14.014602899551392,-273,2001,103,106112,0
14.054616689682007,-209,1993,102,106248,0
14.094605207443237,-261,1990,84,106332,0
14.13463568687439,-289,2030,128,106407,0
14.17460012435913,-278,2035,152,106469,0
14.213639497756958,-298,2024,119,106531,0
14.25363826751709,-269,2009,121,106590,0
14.293649911880493,-286,2014,101,106655,0
14.33361530303955,-254,1991,106,106716,0
14.373641729354858,-234,2020,117,106772,0
14.41376280784607,-272,2016,118,106391,0
14.453652143478394,-301,2021,100,105765,0
14.493810653686523,-278,2030,107,105644,0
14.533778429031372,-293,2020,108,105714,0
14.573692321777344,-256,2012,125,105792,0
14.61361050605774,-283,2018,150,105815,0
14.653648376464844,-230,2012,129,105916,0
14.693767070770264,-241,1997,101,105990,0
14.732642650604248,-238,2008,96,106002,0
14.772608280181885,-220,2000,100,106066,0
14.812623500823975,-269,2014,88,106192,0
14.852651357650757,-252,1999,89,106372,0
14.892593145370483,-289,2029,126,106491,0
14.932618379592896,-238,1976,112,106593,0
14.972618103027344,-257,2007,127,106644,0
15.012869358062744,-286,2020,147,106690,1
15.052639961242676,-305,2044,130,106735,1
15.092616558074951,-348,2053,84,106785,1
15.132647275924683,-292,2040,87,106824,1
15.172627210617065,-262,2012,89,106875,1
15.212629318237305,-262,1995,114,106953,1
15.252664566040039,-218,1976,120,106970,1
15.291625261306763,-274,1984,118,106440,1
15.33163070678711,-280,2005,119,105905,1
15.371671676635742,-284,2022,108,105887,1
15.411673069000244,-318,2032,101,106019,1
15.451660871505737,-308,2024,110,106070,1
15.491690397262573,-297,2007,111,106125,1
15.531615257263184,-278,2028,116,106209,1
15.571632862091064,-323,2021,92,106238,1
15.612283945083618,-308,2007,81,106192,1
15.651605367660522,-322,2015,81,106221,1
15.691661596298218,-333,2011,103,106297,1
15.731661319732666,-348,1991,124,106450,1
15.771658658981323,-344,1998,134,106568,1
15.810941219329834,-346,2000,82,106681,1
15.850659370422363,-459,1955,70,106736,1
15.890716791152954,-527,1902,109,106784,1
15.930613994598389,-471,1839,143,106833,1
15.970647811889648,-426,1794,177,106854,1
16.01090145111084,-303,1738,105,106930,1
16.05064868927002,-359,1725,-57,107006,1
16.09066867828369,-198,2004,-218,107103,1
16.130635023117065,-212,2044,-259,106991,1
16.170681476593018,-502,1835,137,106266,1
16.210853815078735,974,2703,520,105988,1
16.250717639923096,2471,4338,-648,106348,1
16.290663242340088,1987,5077,-2020,106668,1
16.32966184616089,2344,6045,-2367,106901,1
16.36967420578003,3491,2716,27,107088,1
16.40966486930847,1581,-2629,2835,106899,1
16.449727773666382,-1391,-19752,-2862,105679,1
16.490009784698486,-4517,-7409,10505,105394,1
16.529671669006348,-5293,6735,6586,105217,1
16.56982684135437,2258,-8564,-2337,106753,1
16.609663486480713,-1125,-2798,880,106805,1
16.649648904800415,1162,-2584,2665,106768,1
16.689656257629395,-108,-1037,3058,107115,1
16.729669332504272,-1339,-236,3245,107556,1
16.769684553146362,-1367,-206,2537,107816,1
16.8097722530365,-1393,139,1214,108001,1
16.849652528762817,-974,493,169,108090,1
16.888641119003296,-659,941,62,108133,1
16.928747415542603,-173,1367,278,108152,1
16.96861457824707,41,1633,-143,108135,1
17.00864887237549,194,1793,-179,108162,1
17.048630237579346,549,2105,-75,108222,1
17.088668823242188,-186,2094,-295,108261,1
17.12863302230835,-322,2192,-291,108278,1
17.168653964996338,-840,1982,-293,108299,1
17.208672285079956,-959,1919,-52,108270,1
17.24874782562256,-679,1855,-218,108250,1
17.288700342178345,-534,1989,-212,108244,1
17.328769207000732,-275,1763,-481,108255,1
17.368650674819946,-337,1702,-385,108305,1
17.408652782440186,-509,1945,-503,108318,1
17.447656631469727,-50,2264,-746,108334,1
17.487756729125977,-689,2278,-344,108378,1
17.528404235839844,87,2694,74,108364,1
17.567641258239746,1848,3604,-254,108328,1
17.607674837112427,692,3246,-1555,108352,1
17.64767098426819,238,3628,-1664,108388,1
17.68770432472229,1844,4049,-1485,108315,1
17.72796130180359,2019,2325,173,108460,1
17.767699718475342,1605,-2078,2352,108360,1
17.807666778564453,-147,-16443,-513,107255,1
17.847676753997803,-5169,-5073,7607,106412,1
17.88767385482788,-3149,1676,5636,106539,1
17.92799139022827,1237,-2302,108,107148,1
17.966686248779297,3081,-2090,-348,107560,1
18.006691455841064,41,-678,2712,107775,1
18.046783208847046,165,-904,2287,107908,1
18.086690664291382,-559,-1220,2074,107959,1
18.126731395721436,-366,-1383,2774,107780,1
18.166685581207275,-651,-1399,2373,107661,1
18.206692457199097,-1400,-942,1738,107630,1
18.24664855003357,-977,-579,1735,107702,1
18.28669786453247,-1486,-106,1501,107741,1
18.32666516304016,-1456,69,793,107895,1
18.36665415763855,-1022,648,709,108006,1
18.406689643859863,-1375,1292,1087,108026,1
18.446643114089966,-519,1416,802,107621,1
18.486658096313477,-459,1813,779,107200,1
18.52564239501953,-106,1902,289,107192,1
18.565672159194946,-12,1815,-42,107365,1
18.605669021606445,-149,2101,123,107625,1
18.64570379257202,-738,2203,296,107785,1
18.685646772384644,-777,2155,41,107913,1
18.725700855255127,-1084,2108,-258,107996,1
18.765668869018555,-1028,1780,-550,107927,1
18.80566692352295,-976,2003,-70,107775,1
18.845752239227295,-949,1827,34,107647,1
18.885679721832275,-687,1695,-351,107755,1
18.925681114196777,-366,1713,-180,107884,1
18.965685844421387,-506,1706,-241,108021,1
19.005665063858032,-102,2141,4,108193,1
19.044673681259155,-176,1748,161,108288,1
19.08465838432312,-337,2198,472,108367,1
19.124630212783813,131,2617,264,108287,1
19.1647891998291,1055,3216,-306,108061,1
19.204667568206787,469,3214,-945,107963,1
19.24468755722046,943,4027,-1188,108152,1
19.2846941947937,1271,5983,-2212,108207,1
19.324665546417236,2177,5080,-750,108639,1
19.364689826965332,2538,-319,1963,109076,1
19.404714107513428,-638,-23662,-6853,107491,1
19.444751501083374,1228,-11124,12211,107391,1
19.484686613082886,-2902,6929,7560,106536,1
19.52476477622986,2114,-6517,-2968,106729,1
19.563718795776367,-650,-1312,-113,107217,1
19.603695154190063,1579,-2221,1533,107457,1
19.644503831863403,236,-1995,2068,107773,1
19.68369483947754,-372,-1730,2355,107929,1
19.723699808120728,-800,-1650,1920,108010,1
19.763691663742065,-1910,-864,1792,108074,1
19.803745985031128,-1633,-755,1843,108003,1
19.8437180519104,-1236,-60,1381,107208,1
19.88372302055359,-1365,703,1522,106810,1
19.9237117767334,-1174,1287,1339,106868,1
19.963701486587524,-500,1573,501,107022,1
20.003679275512695,117,1782,-19,107120,1
20.043790340423584,72,1706,-213,107342,1
20.08369493484497,38,2180,-189,107694,1
20.12268829345703,143,2638,-396,107898,1
20.162777423858643,762,2931,-303,107991,1
20.20267677307129,831,3094,472,108048,1
20.24271011352539,1699,3300,-429,108134,1
20.282734155654907,2215,4519,-1575,108215,1
20.322717666625977,1200,6149,-1984,108308,1
20.362687587738037,2261,3227,-1116,108379,1
20.402745485305786,2793,-10249,-4345,108503,1
20.442737579345703,-820,-19134,8679,107392,1
20.49873685836792,-1019,-2977,12461,106757,1
20.522733688354492,-7609,3005,468,107030,1
20.562816858291626,6372,-5935,-1755,107270,1
20.602718591690063,154,-328,2406,106750,1
20.641797304153442,1775,-3011,590,106732,1
20.681708335876465,-583,-1732,2334,106929,1
20.72182321548462,-1206,-1366,2308,107004,1
20.761726140975952,-1024,-757,2241,107169,1
20.801708459854126,-1570,-602,1968,107150,1
20.84169316291809,-1203,-399,911,107201,1
20.88172435760498,-1091,623,1452,107247,1
20.92171335220337,-581,1166,1085,107375,1
20.962296724319458,-376,1796,1100,107458,1
21.001684427261353,-239,1803,531,107602,1
21.041659593582153,948,2064,-173,107821,1
21.08169412612915,583,2599,-156,108025,1
21.121729135513306,-526,2717,-459,108140,1
21.161170959472656,125,3143,-322,108149,1
21.200700998306274,827,2523,-718,108160,1
21.240729331970215,973,2591,-474,108126,1
21.281272172927856,2117,3100,-305,108089,1
21.320759534835815,2050,4127,-391,108057,1
21.360806226730347,1752,3918,-513,108251,1
21.400782346725464,2217,3516,1918,108383,1
21.440726041793823,4323,-8291,-3060,108053,1
21.480741500854492,-1069,-21101,4192,106700,1
21.520726680755615,-4300,-1271,14342,106473,1
21.561036586761475,-7774,957,83,106622,1
21.600775241851807,6855,-5457,-2900,107028,1
21.640674591064453,491,-304,2904,107315,1
21.679754734039307,668,-3141,629,107370,1
21.71970772743225,-164,-2369,2039,107489,1
21.759713649749756,-772,-2019,2707,107426,1
21.799715518951416,-964,-1364,2308,107561,1
21.839721202850342,-1419,-590,2265,107306,1
21.879888772964478,-1145,-292,1594,106849,1
21.919682264328003,-853,496,1267,106752,1
21.959665536880493,-592,824,960,106807,1
21.99992036819458,-463,1556,1197,107027,1
22.03972339630127,-343,1757,1036,107173,1
22.079709768295288,-362,1927,819,107574,1
22.11971426010132,-113,2318,713,107836,1
22.159712553024292,-349,2096,22,107910,1
22.198729515075684,-310,1775,-405,107991,1
22.238691568374634,147,1929,-303,108061,1
22.27900195121765,821,2338,8,108099,1
22.318745136260986,1060,2012,-231,108109,1
22.358717441558838,1063,2333,-769,108095,1
22.398754835128784,2028,3410,-490,107999,1
22.43871760368347,1930,5051,-883,107913,1
22.479000568389893,343,7310,-1288,107872,1
22.518763303756714,4026,2725,-405,108129,1
22.558748960494995,373,-20261,-3625,107779,1
22.598757028579712,-1212,-11825,16737,105923,1
22.638738870620728,-7825,4628,7065,105792,1
22.678723096847534,145,-6944,-4923,106063,1
22.71874237060547,826,-4155,2407,105986,1
22.75772452354431,-719,-4285,1622,106042,1
22.797715663909912,-985,-1968,1468,106279,1
22.83773159980774,-563,-268,3341,106546,1
22.87786340713501,2545,627,1852,106990,1
22.91772222518921,2064,3304,383,107179,1
22.957730770111084,1084,3999,-1258,107292,1
22.99775242805481,1808,4601,-2045,107356,1
23.037716388702393,2741,4008,-1325,107394,1
23.07789134979248,2849,3158,70,107375,1
23.117750644683838,3617,4550,1136,107613,1
23.157746076583862,1827,6346,4313,107840,1
23.197680711746216,5553,148,623,106936,1
23.237773180007935,-3291,-28746,-4573,106006,1
23.27675437927246,-2016,-5361,17041,105307,1
23.316747665405273,-7101,-178,-1575,105366,1
23.356746912002563,2456,-5776,-895,105565,1
23.39675211906433,-461,-4267,4439,105230,1
23.436732530593872,-1329,-5240,877,105255,1
23.47687292098999,-868,-1454,2281,105632,1
23.516722202301025,1710,1073,2596,106262,1
23.55674457550049,1478,3209,2155,106720,1
23.596683025360107,1461,5051,735,106594,1
23.63672947883606,970,5026,-867,106739,1
23.67679524421692,-1575,4155,-246,106842,1
23.71673560142517,907,3344,-410,106863,1
23.75674819946289,1845,5216,-28,106839,1
23.79581570625305,2597,8552,-176,107132,1
23.83580183982849,8161,-547,-1564,107088,1
23.87575340270996,-502,-32768,-5448,105755,1
23.915788173675537,-4587,-2205,14745,105087,1
23.95575451850891,-7123,2959,2274,105106,1
23.9959237575531,5903,-6830,-3419,105724,1
24.035757303237915,-1402,-2086,3830,105371,1
24.075791120529175,2228,-4612,2182,105408,1
24.115745782852173,-2260,-1835,2363,105982,1
24.155763149261475,-1661,-1786,3027,106381,1
24.19586682319641,949,-464,2470,106558,1
24.23572564125061,2345,1376,413,107016,1
24.27573823928833,1864,4122,-897,107099,1
24.31622552871704,1903,4504,-2287,107098,1
24.354766130447388,2259,4039,-2681,107211,1
24.395053386688232,4122,4257,-1357,107112,1
24.434794425964355,3040,5425,-1764,107264,1
24.47473692893982,1890,7047,-332,107293,1
24.51482892036438,5639,-7861,-5245,106912,1
24.554826974868774,582,-26993,4787,106042,1
24.595668077468872,-1263,-3629,13249,105826,1
24.634767293930054,-9509,3619,1257,104144,1
24.67473530769348,5268,-9352,-759,104302,1
24.714755535125732,-135,-3289,2366,104368,1
24.7547607421875,336,-3994,2301,104416,1
24.794875621795654,-2370,-2202,2947,104760,1
24.834766626358032,-2108,-521,2999,105446,1
24.873788833618164,564,12,2150,105996,1
24.91387939453125,2408,1969,1639,106097,1
24.953789949417114,3860,3410,1243,106128,1
24.994380950927734,1988,3109,-185,106187,1
25.03374195098877,1185,3346,-539,106250,1
25.07372522354126,3160,4204,508,106205,1
25.113720417022705,4243,5555,1390,106103,1
25.15374755859375,3716,5716,1086,106249,1
25.193828344345093,5171,1228,-1593,106166,1
25.233766317367554,-2057,-23026,-3211,106119,1
25.273787260055542,2363,-12482,18694,104787,1
25.314298152923584,-9653,5062,5495,104643,1
25.353774547576904,-585,-6585,-4545,104986,1
25.39383578300476,1808,-3725,4766,104691,1
25.43276333808899,-701,-5162,3032,104598,1
25.47284746170044,261,-3361,1819,105295,1
25.512725114822388,-754,352,2243,105835,1
25.55274248123169,704,1071,2208,106017,1
25.592740774154663,507,2629,1273,106074,1
25.63276433944702,1025,2197,172,106167,1
25.672741651535034,1342,3424,-77,106262,1
25.712890625,260,3494,-229,106302,1
25.752742767333984,1696,3464,455,106313,1
25.792798280715942,4217,5204,1322,106372,1
25.832737922668457,920,6204,1488,106421,1
25.872804880142212,2441,7854,2,106255,1
25.912790775299072,7021,-8165,-2940,106262,1
25.951794624328613,1212,-30107,6348,105886,1
25.99173879623413,-2850,917,15079,106047,1
26.031815767288208,-8976,-1984,-5019,105251,1
26.071786403656006,4224,-5451,-501,105521,1
26.111761569976807,-517,-1939,4795,105092,1
26.151796102523804,160,-4500,2058,104993,1
26.191919088363647,-2584,-1943,2548,105143,1
26.23179316520691,-1678,-1029,2441,105239,1
26.271772623062134,-425,563,1333,105339,1
26.312054872512817,414,2201,529,105792,1
26.351758241653442,1041,2147,-383,106206,1
26.3917133808136,12,3155,-93,106474,1
26.431737422943115,955,3630,-665,106557,1
26.47075653076172,964,3394,-458,106501,1
26.510836601257324,3037,4243,402,106469,1
26.55112314224243,3708,5587,355,106446,1
26.590932846069336,4039,6393,481,106614,1
26.631277561187744,7215,-1438,1029,106966,1
26.67081642150879,-2601,-29570,-2354,106397,1
26.71141219139099,1382,-7847,18608,105971,1
26.75078320503235,-13884,1576,-2410,104949,1
26.790767431259155,5533,-7377,-391,104969,1
26.830753803253174,6,-2755,4341,104313,1
26.870851278305054,-739,-5633,-173,104328,1
26.911402225494385,-2770,-1588,2665,104577,1
26.950750589370728,-759,-562,2636,105111,1
26.990865230560303,591,1568,2703,105743,1
27.029738903045654,543,2171,1078,105985,1
27.069814920425415,1181,2280,951,106218,1
27.109748363494873,1927,3661,1280,106326,1
27.14975881576538,-933,3979,227,106319,1
27.20646595954895,1558,4614,-558,106202,1
27.229764461517334,3720,8282,1199,106306,1
27.269789218902588,1011,9962,-278,106134,1
27.309783697128296,4985,2894,-1478,106529,1
27.349818468093872,1810,-32768,-3012,105862,1
27.389822244644165,-2276,-3882,13859,104092,1
27.42981457710266,-8061,87,-3313,104626,1
27.469801425933838,3391,-4391,442,104513,1
27.509855270385742,-138,-3259,3765,104236,1
27.54896593093872,-298,-3512,1361,104597,1
27.588791847229004,-2066,-1457,2269,104992,1
27.628976345062256,-942,-337,1023,105516,1
27.6687593460083,-499,1585,1443,105907,1
27.708756685256958,-91,1833,-760,105929,1
27.748804807662964,510,3997,-1676,106061,1
27.788817405700684,450,5343,757,105993,1
27.828797101974487,3949,6080,1124,106080,1
27.868786573410034,3113,7479,640,106023,1
27.90876269340515,3418,9076,-140,105816,1
27.948806047439575,4503,-3052,-4601,106183,1
27.98879384994507,5489,-32768,8387,105783,1
28.028793334960938,-10237,8587,12429,103775,1
28.06882071495056,-584,-11374,-8147,105517,1
28.107789754867554,286,-2034,3809,105526,1
28.147770881652832,1388,-3461,2374,105461,1
28.187792778015137,-706,-1069,2261,105665,1
28.228134632110596,-1633,-930,2100,106357,1
28.26778507232666,-197,44,1238,106983,1
28.30779719352722,-379,2037,1047,107359,1
28.347764253616333,841,2536,981,107445,1
28.387744665145874,608,4405,63,107401,1
28.428028345108032,334,3906,-263,107364,1
28.46777033805847,800,4528,902,107404,1
28.50774836540222,3817,6069,152,107301,1
28.54778218269348,2073,8727,-3219,107188,1
28.587780237197876,7485,1480,-2894,107996,1
28.6267991065979,387,-32768,2796,107876,1
28.66681718826294,-7291,-842,11707,106241,1
28.706838607788086,-5264,1323,-2512,106220,1
28.746851921081543,6883,-3907,-1301,106249,1
28.786792516708374,-1618,-525,3070,106640,1
28.826894760131836,968,-3182,1968,106911,1
28.866832733154297,-1475,-1742,2436,107024,1
28.906814098358154,-1048,-1575,1909,107092,1
28.947232007980347,-1436,-710,1938,107197,1
28.98681402206421,-2031,62,1903,107220,1
29.02682638168335,-1431,356,1454,107162,1
29.066749095916748,-1822,733,624,107007,1
29.10676074028015,-1028,1351,671,107005,1
29.146772146224976,-323,1585,674,107105,1
29.185754776000977,-157,2271,612,107252,1
29.225761651992798,-95,2784,970,107312,1
29.265769481658936,-211,1817,-150,107225,1
29.305784463882446,-707,1814,-526,107238,1
29.34616470336914,-559,1571,-931,107300,1
29.38582181930542,-736,1469,-1198,107335,1
29.425800561904907,-751,1517,-1225,107381,1
29.465867519378662,-691,1576,-1030,107406,1
29.505813598632812,-545,1640,-978,107394,1
29.545905113220215,-635,1789,-854,107440,1
29.585793256759644,-385,2059,-519,107431,1
29.625767469406128,-240,1997,-551,107451,1
29.666051626205444,357,2239,-425,107521,1
29.7048020362854,612,2671,313,107610,1
29.74497628211975,1262,2872,-435,107670,1
29.785300493240356,1804,3295,-316,107848,1
29.824753046035767,1763,2581,753,107911,1
29.864790678024292,3549,934,1100,107984,1
29.90480327606201,3501,-12040,-60,107864,1
29.945049047470093,-2450,-16504,7042,106849,1
29.984854698181152,-5791,1261,10241,107029,1
30.024820804595947,-4458,-3109,1246,106721,1
30.06477975845337,3779,-9112,779,106339,1
30.104867458343506,536,-5257,1889,106131,1
30.144959688186646,640,-3911,970,106303,1
30.184807300567627,14,-146,2485,106520,1
30.2239990234375,574,2193,217,106799,1
30.263785123825073,1801,7025,-1101,106953,1
30.303818702697754,4833,6560,3375,107144,1
30.343950748443604,1544,5125,1096,107025,1
30.383822917938232,4731,4480,-1705,107110,1
30.423766374588013,3663,116,1163,107241,1
30.46382737159729,930,-7781,1603,107403,1
30.503816604614258,-294,-18689,3415,105966,1
30.54394555091858,-9602,2135,4574,105324,1
30.58382773399353,407,-9521,2336,105304,1
30.623820304870605,829,-4607,2691,105453,1
30.66387629508972,-1193,-2343,2187,106163,1
30.703829526901245,624,1756,1830,106805,1
30.74277114868164,2029,9537,274,107026,1
30.78286862373352,268,9222,1164,107134,1
30.822868585586548,4761,5888,1174,107175,1
30.86287832260132,6843,3814,272,107258,1
30.903018712997437,4005,-4974,1520,107189,1
30.94284224510193,-1602,-26685,2271,105794,1
30.98357844352722,-11840,5534,8059,105285,1
31.022827625274658,4927,-13033,673,105179,1
31.062825441360474,-492,-2929,2921,105275,1
31.102991104125977,368,-933,2315,106092,1
31.142870903015137,1292,5127,1118,106602,1
31.183199167251587,200,11532,-59,106795,1
31.222865343093872,1022,10067,1778,106989,1
31.261826515197754,4453,4700,867,106987,1
31.301823377609253,5279,-1926,-56,107257,1
31.341870546340942,-235,-30240,-1669,106746,1
31.3818302154541,-7929,4854,12016,106301,1
31.42182230949402,-4841,-12219,-521,105326,1
31.46189260482788,2790,-3984,2611,105341,1
31.501826286315918,83,-2386,2430,105723,1
31.54192042350769,1594,727,2105,106389,1
31.581800937652588,862,5749,911,106539,1
31.621777057647705,-349,11398,-894,106610,1
31.66183304786682,2275,8485,-940,106727,1
31.701972723007202,5285,4341,818,106885,1
31.74197769165039,3621,-7572,-2068,107140,1
31.780847311019897,-1984,-25620,7785,107033,1
31.82085084915161,-12350,7381,10400,105983,1
31.86392903327942,4837,-16566,-80,105553,1
31.900835037231445,1527,-4728,49,105818,1
31.94082522392273,1460,-1593,243,106196,1
31.980795860290527,597,2845,2090,106634,1
32.02082014083862,1058,6447,-192,106722,1
32.06083345413208,587,13202,-342,106914,1
32.10079884529114,2280,6163,-131,106985,1
32.14083504676819,4272,4722,-808,107057,1
32.18079090118408,5949,-2363,1741,107414,1
32.22083258628845,1182,-30242,864,106683,1
32.26117491722107,-10714,1674,8305,105521,1
32.29983377456665,-1121,-8433,2082,105751,1
32.33982467651367,4463,-7181,284,106140,1
32.37981200218201,1207,-1953,147,106564,1
32.4198055267334,1542,1666,1243,106915,1
32.45980644226074,687,6421,1186,106945,1
32.49984622001648,-3345,11660,2795,107248,1
32.53980112075806,1573,8920,3122,107173,1
32.57983183860779,4966,2216,-494,107193,1
32.619990825653076,2378,-8549,-3762,107645,1
32.659849882125854,-2870,-22156,5808,106521,1
32.699838638305664,-11038,5431,9006,105551,1
32.73985171318054,5731,-14215,158,105058,1
32.77983808517456,1367,-3134,490,105595,1
32.81882095336914,1121,-1115,259,106409,1
32.858819246292114,731,4286,2069,106812,1
32.89885234832764,-567,7996,545,106815,1
32.93885898590088,-1574,10378,3052,107116,1
32.978842973709106,1952,6574,2718,107088,1
33.018786907196045,5183,3487,15,107227,1
33.058977127075195,3793,-12317,-2665,107306,1
33.09885263442993,-3142,-19762,7824,106496,1
33.13884925842285,-9842,5799,9225,104978,1
33.178876638412476,4572,-10881,-1471,105009,1
33.21890115737915,1889,-3527,2352,105217,1
33.25883674621582,428,-3078,900,105769,1
33.29882001876831,-812,1487,2071,106121,1
33.33782649040222,1052,4659,852,106204,1
33.37800669670105,-1112,11159,838,106448,1
33.417842864990234,690,8218,1792,106516,1
33.45791506767273,3440,4879,-1606,106684,1
33.49778628349304,3830,154,428,107253,1
33.53783440589905,2041,-27352,-1022,107130,1
33.57824349403381,-7773,-3347,9721,105465,1
33.61786389350891,-4516,-4069,3801,105045,1
33.657827615737915,3892,-7618,1435,105258,1
33.69781160354614,45,-3812,-260,105766,1
33.737802505493164,-11,107,424,106259,1
33.77816414833069,1330,3941,1132,106466,1
33.81790590286255,-808,9780,1349,106654,1
33.856812715530396,-969,8409,4324,106843,1
33.89701056480408,1490,5647,1437,106614,1
33.93685793876648,4071,2975,-3369,106857,1
33.97683596611023,4927,-9983,-1490,107541,1
34.01684594154358,-4276,-21393,5351,105976,1
34.0568528175354,-10057,3952,8435,105398,1
34.09685182571411,3807,-11455,1250,105698,1
34.13686656951904,864,-4917,273,105963,1
34.176971435546875,683,-846,-632,106276,1
34.216832637786865,1276,2692,1347,106608,1
34.25688028335571,941,6661,1096,106734,1
34.29685425758362,-1409,12711,4092,106926,1
34.336862325668335,-111,8314,3534,106776,1
34.375834703445435,6256,3289,-2145,107110,1
34.41589283943176,3672,-12624,-4385,107539,1
34.455883502960205,-8340,-17078,10434,105635,1
34.49928259849548,-10151,-3384,6616,106299,1
34.53583788871765,5091,-9075,-23,106458,1
34.57587003707886,-1089,-2622,724,106604,1
34.61584782600403,2302,2029,3068,106670,1
34.655853033065796,1527,7249,783,106308,1
34.696041107177734,-50,14073,1754,106577,1
34.73597264289856,2933,7896,2799,106677,1
34.775859355926514,4632,1109,-182,106774,1
34.81591987609863,4612,-15060,353,107181,1
34.85587954521179,-13583,-11264,4636,105767,1
34.8958683013916,-4302,-11557,3962,105648,1
34.93485927581787,2108,-6220,2020,106147,1
34.9748420715332,1853,-697,-833,106426,1
35.01484775543213,1203,7219,1459,106526,1
35.05480742454529,591,14377,313,106608,1
35.095303535461426,3331,8098,2219,106870,1
35.134894609451294,2771,2449,981,107056,1
35.17491030693054,3169,-7622,-1921,107675,1
35.214890003204346,-8674,-22137,3363,106459,1
35.25488209724426,-6671,-11705,5939,105671,1
35.29515552520752,2449,-5978,-382,106127,1
35.33495879173279,3047,1238,910,106582,1
35.37485980987549,1758,9311,2545,106767,1
35.41485381126404,-1999,15605,6726,106923,1
35.45387506484985,3131,5637,154,106936,1
35.493868827819824,2119,2087,-2120,107120,1
35.533883571624756,5566,-9868,-984,107617,1
35.573906898498535,-12869,-16456,7307,106497,1
35.613898515701294,-2028,-12763,2924,106213,1
35.6538462638855,2299,-5552,19,106694,1
35.69392490386963,2551,1222,1642,106981,1
35.73383021354675,1953,8841,2897,106954,1
35.773863554000854,-2998,13510,2784,107224,1
35.81380891799927,1725,7508,4105,107061,1
35.85388374328613,3647,2329,-1736,106992,1
35.8939163684845,7946,-14083,233,107364,1
35.933897256851196,-16960,-13579,6436,105879,1
35.972854137420654,3591,-15529,-551,105535,1
36.0128538608551,410,-3516,1523,106114,1
36.05284547805786,2843,2240,1571,106683,1
36.09285259246826,-786,14043,4017,106796,1
36.132880210876465,2435,11051,3332,106918,1
36.17284607887268,3234,5843,582,106922,1
36.21282887458801,2796,364,-2310,107390,1
36.25290894508362,4945,-18270,3457,107210,1
36.29288339614868,-13892,-7795,4026,106336,1
36.3328697681427,2509,-14461,311,105787,1
36.372868061065674,715,-3305,2660,105791,1
36.41285443305969,3392,1617,4094,106400,1
36.452847719192505,354,12263,2242,106677,1
36.492849588394165,3216,9677,2983,107221,1
36.53187918663025,5294,4784,3229,107251,1
36.57183218002319,348,757,-501,107198,1
36.61209058761597,9709,-18189,533,106693,1
36.651880979537964,-10963,-9777,6193,105760,1
36.69187021255493,1940,-13389,618,105159,1
36.731900453567505,1289,-3687,2277,105386,1
36.771897077560425,1432,-780,1261,106303,1
36.81188082695007,383,9169,3036,106611,1
36.85187792778015,-3381,13237,845,106764,1
36.89186453819275,2121,7661,2879,106874,1
36.93185639381409,3281,3773,857,106964,1
36.97189211845398,6219,-8274,156,107151,1
37.01192021369934,-5575,-19728,8244,105401,1
37.051998138427734,-10934,-3262,2122,104924,1
37.09087300300598,7256,-8024,2947,104954,1
37.13107371330261,2470,-1500,2578,105298,1
37.17087459564209,2981,1712,1844,105963,1
37.2110378742218,551,7605,58,106430,1
37.250861406326294,-3479,11450,3108,106993,1
37.29089879989624,4788,4921,2546,106839,1
37.33085560798645,4161,1131,-1307,107336,1
37.3709077835083,5514,-12592,3842,106851,1
37.411009311676025,-12822,-9931,3242,106047,1
37.45089054107666,1832,-14849,1597,105307,1
37.49087882041931,2174,-4054,2193,105333,1
37.530845403671265,2316,-389,1215,105899,1
37.570884227752686,3435,5702,1982,106567,1
37.60991191864014,1402,9496,2894,106609,1
37.649874210357666,546,10226,2330,106965,1
37.6898980140686,4154,2807,966,107042,1
37.7299280166626,2880,-1591,-121,107183,1
37.76987338066101,4157,-22116,7260,105678,1
37.809919118881226,-16475,1346,1704,105680,1
37.84995698928833,11469,-13591,5468,105125,1
37.88989210128784,2206,-2776,1347,105654,1
37.9298951625824,2837,-1130,437,106527,1
37.96999526023865,2513,3813,617,106746,1
38.009852170944214,-423,9391,-1219,107012,1
38.04986882209778,200,8907,5559,107301,1
38.08988308906555,1793,4370,3655,107171,1
38.12963509559631,3040,-39,-2047,107449,1
38.1689133644104,4501,-20479,5318,107532,1
38.20890736579895,-11289,-5250,4557,107131,1
38.249022245407104,4085,-10932,3747,107245,1
38.288878440856934,1548,-3636,535,107296,1
38.32886028289795,2961,-139,1217,107395,1
38.36887836456299,2658,5935,236,107176,1
38.408912897109985,-2397,11839,-1031,107415,1
38.44889521598816,1931,7418,4098,107430,1
38.48887038230896,1639,2814,2147,107310,1
38.528867959976196,2934,-4257,667,107664,1
38.56892275810242,-2365,-17112,4867,107281,1
38.608896255493164,-10423,-3228,3122,107142,1
38.64785814285278,6876,-9643,2258,107006,1
38.68790602684021,754,-3199,1669,106896,1
38.728166818618774,1599,1899,1294,107237,1
38.76785731315613,2154,8787,105,107264,1
38.80784726142883,904,12070,1111,107451,1
38.847858905792236,4909,6111,817,107498,1
38.88794803619385,2252,1564,-1011,107526,1
38.9280002117157,3161,-9763,1432,107748,1
38.96792793273926,-3994,-15266,9049,106489,1
39.00788235664368,-10151,-6062,43,106434,1
39.04791235923767,5253,-7590,2982,106102,1
39.087947607040405,1689,-2305,2150,106420,1
39.128376722335815,2047,2088,2236,107108,1
39.16785407066345,1104,8766,1043,107050,1
39.20687246322632,-1029,10252,161,107381,1
39.24695825576782,1585,6782,2199,107625,1
39.28685021400452,1660,4904,942,107422,1
39.32692503929138,4972,-5923,-3585,107809,1
39.366899728775024,-2350,-23509,7398,106358,1
39.40692377090454,-12685,-1671,5260,106028,1
39.44869685173035,8469,-10700,2749,105899,1
39.48690605163574,1379,-2282,1303,106348,1
39.52688026428223,2908,1106,1787,107018,1
39.56692361831665,1699,7246,2780,107014,1
39.60690379142761,-2835,12775,264,107226,1
39.646854400634766,3581,6606,326,107232,1
39.68688631057739,3013,2929,-662,107399,1
39.725916385650635,5272,-7999,541,107535,1
39.76591920852661,-7693,-22006,8120,105747,1
39.805930614471436,-10874,-5453,3103,105451,1
39.8467378616333,5400,-7632,2139,105619,1
39.88616323471069,2336,-1734,1335,106365,1
39.9258759021759,2934,1587,1319,107041,1
39.965879917144775,2006,7252,2856,107003,1
40.005939960479736,-2884,10956,18,107226,1
40.046130418777466,2569,5346,305,107224,1
40.0859158039093,3650,2945,-461,107240,1
40.12591075897217,4981,-4446,1803,107574,1
40.165908098220825,-6281,-20570,5278,107024,1
40.20591998100281,-10667,-5472,4790,106270,1
40.245245933532715,4701,-8499,2378,105959,1
40.285171031951904,2724,-1884,131,106557,1
40.32502031326294,2811,2485,2512,107056,1
40.36490225791931,636,9480,830,107170,1
40.40490126609802,537,11894,246,107437,1
40.44529724121094,1693,7174,518,107599,1
40.48497986793518,3662,2693,-452,107593,1
40.52489948272705,4480,-15559,1299,107591,1
40.564921855926514,-14836,-12791,5123,106337,1
40.60491633415222,5618,-18585,124,105911,1
40.645198822021484,539,-2110,3414,106257,1
40.68494534492493,4496,2445,3204,106937,1
40.72495174407959,-2877,14644,846,106924,1
40.763893604278564,-2654,11882,1816,107100,1
40.80388021469116,7106,5322,3275,107488,1
40.843907594680786,944,-3599,-1160,107827,1
40.88392496109009,-5404,-26812,5393,106128,1
40.92391753196716,-3562,-15097,1906,105441,1
40.963895320892334,1591,-6032,2447,105938,1
41.003886699676514,4235,1582,3194,106813,1
41.04391574859619,549,14136,3781,106890,1
41.083942890167236,-3518,14815,3215,106858,1
41.12393140792847,5289,5334,-218,106959,1
41.16410994529724,1780,933,-2665,107480,1
41.20393514633179,4183,-28929,4168,106911,1
41.24393057823181,-13824,-7237,6187,105534,1
41.28290390968323,3879,-9222,3359,105742,1
41.3231987953186,1926,-538,2197,106426,1
41.36295557022095,3944,10624,3344,106624,1
41.402931928634644,-10099,16709,1292,106980,1
41.44298243522644,10333,4118,3386,107119,1
41.482905626297,1424,1742,2389,107425,1
41.523276567459106,3783,-23785,418,106991,1
41.56293058395386,-15298,-5197,7361,105584,1
41.60292053222656,5371,-12382,2398,105396,1
41.64289307594299,1691,-1702,2139,106292,1
41.682883977890015,5238,5689,3766,106746,1
41.7229437828064,-6408,15085,-1274,106868,1
41.76292300224304,-839,12452,3229,106796,1
41.80192708969116,4244,3921,-2022,107163,1
41.84193181991577,2000,-11669,1303,107401,1
41.88195848464966,-9751,-14527,8373,105968,1
41.921958923339844,-2987,-10446,2655,105083,1
41.961934328079224,2329,-7197,1268,105201,1
42.001973152160645,1576,-904,1220,106077,1
42.0419545173645,3515,4963,82,106572,1
42.082088232040405,-3202,13409,3531,106913,1
42.121899366378784,982,8986,6551,106988,1
42.16224145889282,2919,3090,-61,106845,1
42.20202016830444,3043,-4895,1309,107336,1
42.24199652671814,-6747,-20189,4703,105981,1
42.28216767311096,-7651,-9875,5241,105241,1
42.3209547996521,1862,-6129,1785,105873,1
42.36165642738342,4503,761,1896,106685,1
42.40098834037781,3634,8760,403,106947,1
42.44094753265381,-6641,16972,-638,107254,1
42.48090314865112,3555,7825,1063,107251,1
42.52090764045715,1833,-485,-976,107842,1
42.56100392341614,4099,-28184,3414,107055,1
42.6009566783905,-13046,-2259,6800,106553,1
42.640918016433716,8091,-9950,1696,106828,1
42.680938720703125,-696,-2430,2223,107153,1
42.72094511985779,2454,2816,3098,107319,1
42.760990619659424,1150,13354,3600,107196,1
42.80102300643921,-3982,13889,1998,107280,1
42.839938163757324,2668,3735,-4655,107190,1
42.8799192905426,2008,472,-2516,107726,1
42.919960021972656,1171,-23868,3107,106823,1
42.95994281768799,-10330,-4945,12944,105138,1
42.999966859817505,2038,-12110,1102,104950,1
43.03997302055359,1551,-2902,688,105615,1
43.079896688461304,3375,3529,-64,106273,1
43.11991810798645,175,11110,2354,106557,1
43.159934759140015,-1902,12051,8362,107026,1
43.19990682601929,6883,2672,856,106628,1
43.23992562294006,1516,-1954,-824,107189,1
43.28002190589905,1828,-22552,3438,106371,1
43.31995701789856,-12923,-5230,5417,105372,1
43.35897636413574,5291,-10026,2449,105495,1
43.39903807640076,2128,-1059,922,106417,1
43.43892240524292,3814,3573,2568,106741,1
43.4790985584259,220,10403,2590,106747,1
43.518924713134766,-3746,10983,4230,107077,1
43.558910846710205,3616,3722,-193,106812,1
43.59895086288452,1601,-1174,-2815,107426,1
43.63894510269165,3246,-21722,6340,106128,1
43.67894196510315,-11748,-3669,7062,105310,1
43.71896052360535,3932,-15942,-23,104598,1
43.75893974304199,2396,-2711,1689,105192,1
43.79892182350159,3519,1005,638,106153,1
43.83892250061035,1395,6688,1198,106394,1
43.878249168395996,-3526,10361,1387,106711,1
43.91792058944702,-1159,7165,3304,106922,1
43.957908153533936,2110,3224,340,106810,1
43.99792766571045,3111,-207,-1018,107342,1
44.037925481796265,3723,-18835,5197,105997,1
44.0781774520874,-11622,-7408,4261,105101,1
44.11796450614929,2219,-12116,3347,104643,1
44.15792632102966,1198,-3113,905,105177,1
44.19790577888489,2556,903,2468,106031,1
44.23792386054993,3299,7511,2214,106202,1
44.278369188308716,-5531,12381,3568,106709,1
44.31793928146362,547,7068,2400,106572,1
44.35795331001282,1403,2049,-1849,106939,1
44.3971312046051,1044,-10948,391,106588,1
44.43691539764404,-8704,-17032,9823,105778,1
44.47698354721069,-8498,-12821,-3722,104104,1
44.51692986488342,3786,-4796,3814,104220,1
44.556944131851196,1794,-175,2353,105188,1
44.59693169593811,2607,5561,372,105823,1
44.63695049285889,-1963,12928,-2130,106098,1
44.676963806152344,-2109,7857,2038,106605,1
44.71692991256714,3693,2524,1329,106635,1
44.75693154335022,2479,-1244,-14,107137,1
44.796974897384644,3069,-19327,3325,107106,1
44.83698654174805,-12656,-4531,5172,106619,1
44.87700700759888,3390,-9477,1985,106858,1
44.91747450828552,1784,-759,2191,107083,1
44.95593857765198,2869,3503,2443,107199,1
44.99607300758362,538,8841,2127,107078,1
45.035966634750366,-3995,11875,3596,107205,1
45.07596397399902,-1922,7795,1898,107244,1
45.11593794822693,3577,2328,-3244,107429,1
45.15596413612366,2127,-16764,579,106924,1
45.19602370262146,-11652,-8099,11032,105514,1
45.23597550392151,-2864,-13344,-2997,105109,1
45.275957107543945,2763,-3894,2310,105472,1
45.31592416763306,859,-1060,2436,106254,1
45.355929136276245,435,2801,1899,106438,1
45.39594483375549,-1857,12253,1101,106556,1
45.435969829559326,-1974,9185,3638,106759,1
45.474971294403076,4014,3907,-124,106926,1
45.51515340805054,3889,1401,-352,107313,1
45.554959297180176,3476,-15696,2424,106851,1
45.595125913619995,-12854,-7373,6097,105432,1
45.63494944572449,2234,-11559,1514,105299,1
45.67497706413269,1549,-2960,1066,106100,1
45.71497344970703,1298,296,1799,106853,1
45.75493144989014,2120,4504,3006,106902,1
45.79511594772339,-778,11487,2534,106850,1
45.83497929573059,-2942,9317,4095,107172,1
45.87496495246887,2903,3882,979,107157,1
45.91495108604431,3484,-1594,-562,107415,1
45.95496964454651,3343,-22741,4258,106171,1
45.99397683143616,-12157,-1272,7070,105277,1
46.0339457988739,6422,-15183,586,104931,1
46.07395267486572,584,-2977,1242,105669,1
46.11415433883667,3144,116,1691,106468,1
46.15393877029419,2350,4463,2048,106522,1
46.1939492225647,-1423,11216,1159,106705,1
46.23394584655762,-904,7743,3642,106896,1
46.27392053604126,2348,4249,-33,106963,1
46.313925981521606,4247,939,-2259,107199,1
46.3539924621582,3792,-15114,2148,107294,1
46.39398407936096,-9818,-9623,6511,105991,1
46.43395471572876,-2741,-7159,6569,105270,1
46.47395062446594,3084,-7227,539,105615,1
46.51299548149109,2378,-153,779,106274,1
46.552937030792236,3228,4930,308,106375,1
46.59299063682556,-2631,11612,795,106781,1
46.63294339179993,1401,5801,7247,107234,1
46.672988414764404,3803,3496,4273,106951,1
46.713173151016235,535,-871,-2332,107363,1
46.75297021865845,3774,-19928,2272,106956,1
46.79302096366882,-11607,-4475,5269,105631,1
46.83296728134155,-1041,-8765,3197,105484,1
46.872934103012085,2339,-5248,911,106211,1
46.91297197341919,3005,-1214,-530,106683,1
46.95294976234436,3037,3305,739,106794,1
46.99292874336243,-614,9881,615,106970,1
47.03194737434387,-731,7572,4795,107439,1
47.071964502334595,3404,2905,3187,107355,1
47.11206364631653,330,257,-118,107578,1
47.15196347236633,5689,-23555,2854,106602,1
47.191991567611694,-16545,-4086,4862,105190,1
47.231974840164185,9480,-10503,1068,105375,1
47.271926164627075,1015,481,2256,106244,1
47.31229543685913,2397,5019,3299,106684,1
47.35196924209595,-2983,10532,-42,106642,1
47.39196443557739,-4493,12161,2286,106984,1
47.431957483291626,5614,9104,-311,107174,1
47.4720025062561,3088,1056,-198,107991,1
47.51240944862366,6760,-32768,5888,106117,1
47.55140805244446,-18720,6668,5379,106255,1
47.59097933769226,12297,-14454,-2376,106579,1
47.630993127822876,1739,-3053,1820,106977,1
47.670949935913086,2393,-718,1532,107131,1
47.71104407310486,-522,5588,2303,107038,1
47.750980377197266,-4081,13473,1341,107105,1
47.791069746017456,-3300,8771,2962,107227,1
47.870341300964355,3076,3253,393,107570,1
47.87123942375183,4219,-625,-384,107887,1
47.911001205444336,709,-23582,-1774,107298,1
47.950982093811035,-4064,-2680,12855,105703,1
47.99097394943237,14,-10066,2504,105038,1
48.03096294403076,2725,-5269,-1010,105864,1
48.069976568222046,1357,-701,169,106689,1
48.10998058319092,2562,3811,458,106947,1
48.1500244140625,-930,10821,-129,106986,1
48.18998575210571,-4136,10559,5548,107405,1
48.23015809059143,3589,3813,3650,107145,1
48.26997900009155,1942,-1379,-1627,107753,1
48.30997014045715,3951,-22206,3503,107655,1
48.349982500076294,-10761,201,9030,107034,1
48.389989137649536,5238,-12552,2246,107133,1
48.430190563201904,1914,-4358,484,107277,1
48.470595598220825,2325,-82,205,107333,1
48.509944677352905,1923,4239,1033,107160,1
48.549970865249634,-1813,10613,-730,107333,1
48.588985204696655,-473,6894,4797,107747,1
48.629026889801025,4354,5407,3687,107795,1
48.66981291770935,2534,374,-576,108003,1
48.70903491973877,4347,-25158,1870,107679,1
48.74900007247925,-15015,-2138,4242,106271,1
48.78904175758362,4563,-12039,2478,106476,1
48.82954716682434,2101,-3821,-249,107193,1
48.86896514892578,2752,246,1295,107430,1
48.90903067588806,2277,6270,2883,107401,1
48.9490168094635,-1881,10317,1949,107421,1
48.98899173736572,-1543,8290,3505,107557,1
49.029942750930786,2740,4433,1531,107648,1
49.06896615028381,3536,-981,-940,107992,1
49.107993602752686,704,-26592,867,106693,1
49.14795660972595,-9756,-806,9242,105761,1
49.187997341156006,5701,-10961,775,106411,1
49.22819781303406,2772,-3070,133,107164,1
49.267956018447876,807,1345,1329,107379,1
49.30797719955444,1341,6405,1224,107233,1
49.34818148612976,-3258,11313,3216,107515,1
49.38797950744629,1711,5988,3659,107576,1
49.4281530380249,1067,3487,-83,107694,1
49.468013048172,2761,-269,-1218,108026,1
49.50798487663269,4229,-17700,3648,107408,1
49.54799461364746,-7646,-8160,7470,105708,1
49.58799123764038,-2624,-8306,4421,105448,1
49.627002000808716,3829,-6229,-1409,106532,1
49.66693568229675,1651,-6,194,107157,1
49.707008838653564,1280,4944,1176,107107,1
49.74698233604431,-2483,11574,811,107338,1
49.78696012496948,-483,7210,7270,107921,1
49.827004194259644,4066,3770,4987,107739,1
49.86759281158447,-482,-927,-2160,108016,1
49.90704560279846,6950,-25806,1682,107329,1
49.947059631347656,-13588,-1430,5869,105985,1
49.98698687553406,7114,-12446,2979,106039,1
50.02697992324829,1174,-2918,209,106994,1
50.066996335983276,2818,891,1508,107430,1
50.105989933013916,1296,5885,1600,107356,1
50.14599680900574,-3387,10212,411,107630,1
50.18600058555603,-1312,7196,4159,107884,1
50.225977420806885,1735,3198,1672,107766,1
50.266005516052246,2392,-139,-1412,108120,1
50.30597472190857,2054,-23688,511,107533,1
50.346007108688354,-10614,-2461,9750,106053,1
50.386030435562134,3350,-10084,1734,106447,1
50.426042556762695,2003,-2001,666,107179,1
50.465991258621216,1399,2984,81,107451,1
50.50597596168518,-186,9896,1108,107423,1
50.5460000038147,-2656,12765,5392,107680,1
50.58601236343384,4762,5527,1545,107789,1
50.6250057220459,1651,1800,-108,108017,1
50.665003538131714,4494,-14371,678,108077,1
50.70504593849182,-14323,-11802,5131,106517,1
50.74520826339722,1414,-13557,3072,106119,1
50.78498148918152,1653,-4687,124,107077,1
50.82500338554382,2880,-183,1829,107674,1
50.86495542526245,2321,5388,3037,107635,1
50.9049859046936,-3036,12073,1003,107641,1
50.945093393325806,-474,7490,3224,107905,1
50.98506045341492,1917,3730,748,107918,1
51.024988889694214,2135,1143,-2322,108204,1
51.06501388549805,6909,-20259,2378,107428,1
51.10500741004944,-10817,-7668,5524,106155,1
51.14525532722473,2584,-12760,52,106153,1
51.18397617340088,1357,-2633,962,106700,1
51.22397327423096,296,188,2190,107395,1
51.26398038864136,104,4209,3827,107632,1
51.30399823188782,-1634,12471,2095,107469,1
51.344011545181274,-1682,8416,-499,107496,1
51.38399338722229,3216,3965,-1460,107823,1
51.42399215698242,4407,1038,2285,108127,1
51.46401119232178,3849,-24453,2103,106716,1
51.50409007072449,-14318,-3928,6138,105521,1
51.5443549156189,5723,-14848,2321,105011,1
51.58399558067322,1711,-2295,1075,106018,1
51.62310314178467,2129,261,1493,106890,1
51.66300868988037,1131,5399,1465,106990,1
51.702983379364014,794,9122,1267,107030,1
51.74308919906616,-959,9801,4286,107296,1
51.78298473358154,2905,3946,346,107405,1
51.82316875457764,2846,1758,680,107808,1
51.863027811050415,5634,-15050,-593,107693,1
51.90306496620178,-11606,-10437,6332,106390,1
51.94333004951477,-2998,-11925,2686,105650,1
51.983022689819336,3118,-4870,470,106355,1
52.02299785614014,2155,-658,1662,107185,1
52.06319308280945,2092,4562,2677,107363,1
52.10200619697571,280,11196,1995,107345,1
52.14201807975769,-3556,12193,6416,107790,1
52.18200135231018,1824,5148,3148,107709,1
52.222028970718384,2940,-2167,-3269,108084,1
52.26224899291992,5308,-28799,2787,107288,1
52.302255153656006,-15397,1680,4819,107339,1
52.3420250415802,12648,-12913,150,107448,1
52.381980180740356,187,-2308,2811,107686,1
52.42200493812561,732,-666,1391,107772,1
52.46225953102112,912,6804,2206,107559,1
52.50206017494202,-3042,12360,1140,107625,1
52.54201817512512,-30,6777,3460,107784,1
52.581007957458496,3445,3900,268,108034,1
52.62098813056946,4972,155,1150,108274,1
52.66112947463989,2322,-25989,578,108074,1
52.70102262496948,-13848,-1448,6466,106596,1
52.7410204410553,5261,-13200,1246,107036,1
52.78104329109192,1857,-3252,-417,107622,1
52.82101631164551,2832,994,2639,107811,1
52.86110711097717,1330,7032,242,107604,1
52.90102410316467,-2660,15236,2319,107825,1
52.94100880622864,3705,6739,5981,108051,1
52.98099732398987,1626,3115,3010,108021,1
53.02103638648987,5583,-12277,-3000,108146,1
53.06104588508606,-7816,-17804,4147,106373,1
53.10001802444458,-7939,-6249,4020,106240,1
53.13999843597412,5447,-8326,-601,107179,1
53.18001866340637,470,-1630,1727,107692,1
53.22000741958618,2838,3503,2838,107806,1
53.25999450683594,1569,7551,1469,107536,1
53.300029039382935,-3140,12612,3165,107725,1
53.34000015258789,1667,5255,1086,107974,1
53.37999248504639,3989,2923,948,108183,1
53.42002868652344,6962,-9138,1851,108273,1
53.460071325302124,-6473,-21348,1252,107023,1
53.50005102157593,-8907,-2036,7301,106125,1
53.540008783340454,7253,-9025,-224,106962,1
53.57951593399048,1420,-2220,952,107544,1
53.61900186538696,2227,1806,1695,107573,1
53.65903091430664,1064,6490,1110,107259,1
53.699021339416504,-3845,10870,4746,107793,1
53.739006757736206,1803,5999,5840,107760,1
53.779059648513794,2302,2538,972,107786,1
53.819069385528564,4674,-5559,-911,108272,1
53.85906505584717,-2711,-21753,2013,106951,1
53.89905858039856,-10590,-1892,6466,105976,1
53.93903636932373,7214,-10033,2392,105992,1
53.979008197784424,2709,-2772,-255,106898,1
54.018980741500854,1584,816,668,107359,1
54.058024406433105,1804,5848,-1196,107269,1
54.09800958633423,-3209,11432,282,107645,1
54.13801455497742,2129,5817,4812,107902,1
54.178388357162476,2614,3016,3573,107998,1
54.21811056137085,1313,-1779,-65,108173,1
54.25803232192993,4509,-23662,668,107886,1
54.2981059551239,-10514,-2531,6047,106476,1
54.33804225921631,2562,-11048,3004,106421,1
54.378708839416504,1358,-4961,-740,107019,1
54.41800665855408,1646,261,1789,107430,1
54.45806908607483,1053,6012,2095,107407,1
54.498767614364624,-1084,10347,1700,107636,1
54.537195444107056,1784,6689,6912,108040,1
54.577189207077026,3475,4825,5510,108044,1
54.617165327072144,539,-741,-237,108256,1
54.65705394744873,1993,-29906,-3812,107199,1
54.69705581665039,-14333,2778,6795,105966,1
54.737037658691406,9974,-14626,2471,106006,1
54.77703261375427,1422,-2887,910,107161,1
54.81702375411987,1754,-551,1355,107522,1
54.86291575431824,1041,6039,892,107313,1
54.897398710250854,-8139,13195,58,107476,1
54.937010049819946,2851,4965,5419,107696,1
54.97713613510132,1827,2266,2267,107815,1
55.01603674888611,3941,-6054,-1638,108180,1
55.05625295639038,-3609,-18043,1714,107081,1
55.09610342979431,-7177,-6896,5224,106476,1
55.1361927986145,2474,-6071,236,107336,1
55.17603302001953,2047,-41,1041,107781,1
55.21602749824524,2287,4083,2322,107807,1
55.25606179237366,-221,9749,2023,107620,1
55.29603099822998,-3425,11704,3809,107879,1
55.336039781570435,2827,5210,2816,108047,1
55.37600874900818,2384,1717,1705,108236,1
55.41603112220764,4787,-21538,-233,107631,1
55.456382036209106,-5583,-7789,9883,105668,1
55.496251344680786,-6590,-6699,1549,105395,1
55.53506946563721,6035,-7899,-767,106310,1
55.575034856796265,827,-2507,1465,106922,1
55.61503291130066,1653,1395,3144,107272,1
55.65500283241272,1725,6985,565,106967,1
55.69557237625122,-4604,11963,121,107217,1
55.735015869140625,2303,5089,1175,107527,1
55.775031089782715,3083,2606,1297,107858,1
55.81517481803894,1385,-1316,1028,108067,1
55.85520577430725,3924,-21537,218,107213,1
55.89513063430786,-12584,-2508,6546,105740,1
55.93503999710083,6327,-11197,2723,105754,1
55.97518706321716,1669,-1966,608,106754,1
56.014047622680664,2736,1877,1608,107191,1
56.054184436798096,497,8390,1031,107179,1
56.09411334991455,-4039,10029,2399,107549,1
56.13402247428894,1896,6549,6427,107742,1
56.17407822608948,2249,3096,2738,107763,1
56.21405553817749,2515,-16166,-3746,107649,1
56.25426173210144,-6168,-8749,9605,106204,1
56.29404616355896,-8594,-5763,-490,106498,1
56.33430242538452,6629,-7582,675,106110,1
56.37403059005737,2080,-3003,1396,106519,1
56.41402554512024,1237,-1717,2086,107020,1
56.45403742790222,1770,5566,632,106966,1
56.494131326675415,-3825,11073,-526,107282,1
56.53379034996033,568,6010,4748,107685,1
56.57305598258972,3596,3284,3480,107753,1
56.61302590370178,1826,-463,-158,108054,1
56.653034925460815,2950,-19460,-268,107500,1
56.6931049823761,-11125,-5030,5531,106168,1
56.733027935028076,902,-8744,3338,106315,1
56.77304935455322,2091,-4195,803,107205,1
56.813334226608276,2256,-86,1138,107514,1
56.853047370910645,2255,6416,1434,107525,1
56.89309859275818,-2561,10933,1086,107628,1
56.93303084373474,-2415,8193,5636,107884,1
56.97304010391235,3359,4335,3132,107950,1
57.012255907058716,2682,-5592,-1790,108442,1
57.0522518157959,-1605,-22724,1095,107219,1
57.0920524597168,-9247,35,8138,107231,1
57.13228631019592,8382,-10350,-1003,107677,1
57.1722195148468,1463,-2326,408,107839,1
57.21234083175659,1459,-550,1004,107900,1
57.252424478530884,1698,4137,764,107612,1
57.29232382774353,-3541,10993,-942,107603,1
57.332050800323486,-4411,6842,3571,108033,1
57.37202048301697,5419,2356,2935,108167,1
57.41227126121521,653,185,1146,108266,1
57.45223546028137,3828,-16965,621,108089,1
57.4922571182251,-8374,-7036,4686,106390,1
57.53121328353882,-2772,-7073,2557,106403,1
57.57122731208801,1590,-5988,2464,106954,1
57.611109018325806,3610,306,661,107369,1
57.65102815628052,1796,5541,1799,107546,1
57.6910355091095,-765,10079,2208,107602,1
57.73117208480835,-2643,7548,2272,107968,1
57.77103018760681,3843,3525,2245,108023,1
57.81103229522705,2681,-1497,1735,108232,1
57.851062297821045,903,-22365,-2062,106606,1
57.89110851287842,-12988,259,8159,105411,1
57.93107771873474,6628,-11316,1959,105943,1
57.971049070358276,2517,-1649,1458,106968,1
58.0100462436676,2355,2004,1800,107340,1
58.05001783370972,420,7222,982,107430,1
58.09006667137146,-2809,9244,2433,107682,1
58.13011860847473,-1842,6146,2609,107806,1
58.17001223564148,698,3655,748,107891,1
58.21002769470215,696,167,203,108190,1
58.25007081031799,2380,-18333,519,107327,1
58.29006791114807,-8203,-5961,7613,105499,1
58.330220460891724,-1090,-8865,2354,105304,1
58.37023091316223,2715,-4255,1050,106013,1
58.410332679748535,1554,-95,734,106984,1
58.45007586479187,-1160,5900,2629,107199,1
58.49005174636841,-2150,11291,-112,107122,1
58.529117584228516,-3019,11493,2797,107517,1
58.569053411483765,1744,9376,1366,107664,1
58.60905146598816,5122,295,-1779,108181,1
58.64909338951111,4713,-30347,-1573,106444,1
58.68907570838928,-7679,1372,10390,105434,1
58.72917175292969,1525,-7495,-4801,106188,1
58.769222021102905,2695,-3813,1193,106693,1
58.80906534194946,-772,-3974,446,106815,1
58.84908890724182,-2048,-4926,2217,106208,1
58.88907790184021,-2645,-2481,1967,106402,1
58.92919421195984,1216,4884,2915,106674,1
58.96922039985657,-2920,14689,1053,106887,1
59.00803542137146,1509,5787,-352,107191,1
59.04815196990967,3582,3250,987,107583,1
59.0881028175354,3097,-2769,4834,107874,1
59.128350257873535,1271,-18357,-571,107512,1
59.1682391166687,-5229,-1657,9941,106277,1
59.20822858810425,-1999,-9022,95,105115,1
59.248473167419434,2617,-5188,2834,105372,1
59.288233518600464,1906,-2649,836,106309,1
59.32819437980652,806,1861,2032,106950,1
59.3681960105896,-135,7808,238,106962,1
59.408063650131226,-1848,11785,1209,107198,1
59.44812774658203,1587,7542,977,107289,1
59.48807406425476,2563,1151,-883,107519,1
59.5270459651947,2301,-2941,474,107854,1
59.56723237037659,2182,-15631,1009,107922,1
59.60725283622742,-3747,-3672,8272,106899,1
59.64729642868042,-5647,-311,3908,107017,1
59.68799924850464,1966,-3053,-968,107242,1
59.7271409034729,4364,-1641,123,107339,1
59.76705741882324,259,-659,1729,107375,1
59.80709171295166,-576,-1659,1848,107363,1
59.84710121154785,-1121,-1577,2840,107339,1
59.88722276687622,-497,-1367,2432,107468,1
59.92718815803528,-669,-430,2167,107586,1
59.9672110080719,-1967,152,2558,107691,1
60.00663661956787,-2259,408,1287,107758,2
60.04606533050537,-1422,1137,570,107841,2
60.086220264434814,-1007,1261,97,107961,2
60.12640929222107,-32,1891,529,108099,2
60.166048765182495,254,2479,654,108109,2
60.20681548118591,-236,1794,-175,108089,2
60.24669408798218,-477,1521,-650,108108,2
60.2862184047699,-172,1728,-485,108146,2
60.32607054710388,-309,1705,-676,108190,2
60.36607241630554,-37,1781,-640,108239,2
60.40609097480774,-292,1796,-786,108231,2
60.44614624977112,-217,1639,-964,108264,2
60.486053705215454,-501,1519,-987,108276,2
60.525946617126465,-612,1584,-755,108279,2
60.56509304046631,-747,1679,-457,108306,2
60.60505700111389,-832,1704,-81,108296,2
60.64532542228699,-914,1713,-188,107918,2
60.685214042663574,-979,1372,-483,107384,2
60.72508454322815,-1459,1427,-1058,107500,2
60.76508188247681,-1308,1440,-1548,107836,2
60.80508995056152,-1274,1487,-1661,108027,2
60.84533071517944,-1061,1469,-1627,108144,2
60.885096073150635,-849,1532,-1395,108202,2
60.92508602142334,-935,1596,-1230,108290,2
60.9651153087616,-918,1527,-1273,108374,2
61.00422811508179,-830,1570,-1216,108412,2
61.04426980018616,-712,1676,-1172,108459,2
61.08423948287964,-668,1550,-1254,108468,2
61.12424921989441,-679,1505,-1360,108392,2
61.164095401763916,-776,1436,-1322,108193,2
61.204232692718506,-621,1453,-1120,108158,2
61.24425005912781,-352,1427,-925,108182,2
61.28422522544861,-391,1504,-791,108266,2
61.324082136154175,-280,1560,-710,108356,2
61.3640673160553,-389,1615,-788,108405,2
61.404074907302856,-696,1738,-983,108454,2
61.44425916671753,-828,1632,-1314,108521,2
61.48306846618652,-838,1626,-1350,108590,2
61.52310061454773,-819,1617,-1268,108623,2
61.56335687637329,-805,1591,-1104,108583,2
61.60310196876526,-822,1417,-1117,107979,2
61.64307737350464,-488,1321,-956,107311,2
61.683067321777344,-473,1501,-830,107298,2
61.723201751708984,-701,1801,-865,107478,2
61.76336336135864,-943,1793,-1195,107862,2
61.80309581756592,-1319,1427,-1689,108138,2
61.84314465522766,-1103,1359,-1417,108244,2
61.88306641578674,-946,1357,-1010,108306,2
61.93038296699524,-973,1482,-794,108384,2
61.96317195892334,-1149,1762,-637,108450,2
62.00223922729492,-1227,1588,-889,108487,2
62.04224729537964,-1088,1307,-1002,108352,2
62.082213401794434,-929,1243,-949,107471,2
62.123180627822876,-858,1557,-750,107081,2
62.162320137023926,-983,1684,-828,107129,2
62.202237129211426,-1011,1406,-1172,107362,2
62.242098569869995,-730,1348,-1258,107751,2
62.282089710235596,-648,1495,-1238,108086,2
62.32208037376404,-919,1557,-1323,108261,2
62.362521171569824,-1267,1568,-1465,108329,2
62.40223956108093,-1399,1535,-1483,108397,2
62.44280982017517,-1285,1539,-1284,108467,2
62.48122978210449,-1190,1406,-1138,108509,2
62.521077394485474,-960,1366,-929,108492,2
62.5620551109314,-816,1397,-861,107895,2
62.6012065410614,-753,1369,-983,107333,2
62.64120864868164,-603,1348,-1064,107406,2
62.68123912811279,-646,1279,-1150,107731,2
62.72108340263367,-588,1313,-1089,108129,2
62.761268854141235,-674,1419,-948,108337,2
62.80118203163147,-933,1518,-960,108432,2
62.84122943878174,-1099,1579,-1027,108496,2
62.88122510910034,-1317,1586,-1052,108557,2
62.921106576919556,-1268,1546,-1021,108642,2
62.9602324962616,-1046,1508,-899,108716,2
63.0002167224884,-966,1555,-818,108765,2
63.04022526741028,-902,1567,-832,108445,2
63.08034920692444,-753,1541,-964,107898,2
63.12022042274475,-701,1482,-1167,107966,2
63.1601836681366,-705,1396,-1421,108298,2
63.20022773742676,-948,1325,-1437,108518,2
63.24084496498108,-1108,1311,-1344,108603,2
63.2806601524353,-941,1254,-1189,108618,2
63.32022404670715,-894,1296,-964,108660,2
63.36008834838867,-911,1411,-812,108694,2
63.400203704833984,-1034,1514,-862,108769,2
63.4392671585083,-1130,1409,-1180,108813,2
63.4799063205719,-1250,1289,-1418,108756,2
63.51919937133789,-1230,1298,-1350,108132,2
63.559314250946045,-1187,1478,-1107,107651,2
63.5991907119751,-1331,1532,-1149,107728,2
63.639084815979004,-1334,1438,-1343,107998,2
63.67924189567566,-1238,1210,-1508,108300,2
63.719098806381226,-929,1077,-1364,108457,2
63.75921988487244,-726,1182,-1089,108521,2
63.799129247665405,-621,1326,-951,108568,2
63.839186906814575,-665,1311,-1087,108628,2
63.879117250442505,-845,1067,-1403,108721,2
63.91821551322937,-956,995,-1455,108766,2
63.958229541778564,-919,1188,-1118,108632,2
63.99819469451904,-1142,1337,-1002,107790,2
64.03809309005737,-1494,1479,-1077,107452,2
64.07825040817261,-1543,1446,-1252,107558,2
64.11820578575134,-1505,1221,-1445,107839,2
64.15822315216064,-1235,1185,-1202,108128,2
64.19818186759949,-926,1302,-879,108307,2
64.23816585540771,-868,1456,-839,108433,2
64.27831721305847,-1071,1336,-1239,108539,2
64.31824278831482,-1356,1138,-1670,108645,2
64.35819339752197,-1163,1131,-1534,108713,2
64.39713096618652,-1072,1239,-1160,108738,2
64.43717813491821,-1071,1362,-885,108619,2
64.4771957397461,-1240,1418,-859,107891,2
64.5171890258789,-1285,1371,-1022,107648,2
64.55720829963684,-1282,1278,-1183,107798,2
64.59722638130188,-1224,1165,-1200,108060,2
64.63736248016357,-1077,1164,-1072,108293,2
64.67719459533691,-803,1252,-854,108406,2
64.71717143058777,-704,1364,-787,108478,2
64.75719499588013,-1017,1315,-1070,108550,2
64.79719543457031,-1417,1199,-1499,108658,2
64.83720588684082,-1324,1224,-1434,108741,2
64.87626934051514,-1126,1341,-1111,108782,2
64.91618227958679,-1040,1387,-867,108445,2
64.95620155334473,-982,1424,-805,107721,2
64.99685978889465,-1054,1331,-1113,107693,2
65.0362024307251,-1105,1276,-1411,107956,2
65.07623982429504,-1118,1275,-1507,108358,2
65.11618375778198,-991,1207,-1458,108589,2
65.15622448921204,-922,1241,-1257,108684,2
65.1963620185852,-800,1338,-1102,108727,2
65.23621129989624,-851,1346,-1184,108782,2
65.27622723579407,-1022,1256,-1419,108853,2
65.31618690490723,-1117,1219,-1522,108913,2
65.35547590255737,-1164,1333,-1320,108913,2
65.39551782608032,-1157,1368,-1117,108357,2
65.4352080821991,-1040,1168,-962,107638,2
65.47517538070679,-834,1395,-713,107508,2
65.51517510414124,-912,1646,-812,107678,2
65.55519104003906,-1402,1225,-1668,108208,2
65.59583353996277,-1461,1034,-1961,108516,2
65.63519620895386,-1120,1295,-1452,108613,2
65.67520785331726,-908,1378,-1065,108620,2
65.71539664268494,-573,1273,-913,108656,2
65.75517535209656,-505,1195,-995,108698,2
65.79613494873047,-905,1219,-1304,108791,2
65.83421802520752,-1417,1253,-1595,108742,2
65.8742253780365,-1460,1315,-1476,107904,2
65.91421246528625,-1077,1376,-1126,107371,2
65.95418357849121,-852,1336,-999,107410,2
65.9942147731781,-954,1226,-976,107620,2
66.03417730331421,-1221,1188,-1088,107956,2
66.07423639297485,-1090,1263,-1143,108225,2
66.11455702781677,-843,1302,-1191,108395,2
66.15418791770935,-820,1255,-1351,108513,2
66.19420766830444,-1045,1066,-1558,108627,2
66.23420476913452,-1069,1208,-1319,108675,2
66.27420735359192,-1168,1416,-1097,108758,2
66.31419467926025,-1426,1528,-1112,108828,2
66.35318541526794,-1502,1479,-1278,108297,2
66.39318990707397,-1270,1207,-1401,107568,2
66.43320155143738,-813,1160,-1163,107461,2
66.47319030761719,-499,1254,-945,107631,2
66.5131905078888,-467,1336,-951,107966,2
66.55317735671997,-727,1334,-1264,108381,2
66.59319519996643,-1059,1102,-1702,108634,2
66.6331832408905,-907,1159,-1531,108691,2
66.67316555976868,-785,1256,-1205,108729,2
66.71315288543701,-903,1397,-1056,108785,2
66.75321054458618,-1105,1569,-1122,108859,2
66.7931809425354,-1282,1431,-1487,108937,2
66.83223414421082,-1219,1257,-1683,108926,2
66.87223315238953,-1014,1261,-1476,108248,2
66.91257214546204,-838,1345,-1206,107771,2
66.95224976539612,-678,1429,-1051,107834,2
66.99221730232239,-846,1394,-1230,108127,2
67.03218173980713,-958,1209,-1489,108525,2
67.07220578193665,-936,1164,-1485,108694,2
67.11281251907349,-870,1252,-1215,108745,2
67.15219068527222,-904,1331,-1041,108772,2
67.192209482193,-1087,1425,-1037,108786,2
67.23222517967224,-1223,1285,-1234,108876,2
67.27217745780945,-1126,1158,-1334,108943,2
67.31126689910889,-979,1267,-1099,108815,2
67.35117816925049,-884,1323,-1000,107925,2
67.39118504524231,-889,1395,-1058,107596,2
67.43115520477295,-968,1370,-1273,107783,2
67.47119879722595,-1115,1275,-1472,108163,2
67.51130366325378,-1140,1300,-1418,108529,2
67.55118680000305,-1032,1366,-1206,108711,2
67.59120273590088,-986,1378,-1108,108790,2
67.63126492500305,-1035,1362,-1104,108818,2
67.67121767997742,-1025,1352,-1145,108885,2
67.7111828327179,-1053,1350,-1210,108923,2
67.75118589401245,-1141,1230,-1284,108995,2
67.79120993614197,-1116,1217,-1174,108823,2
67.83036065101624,-979,1279,-1011,107891,2
67.87020587921143,-876,1340,-946,107581,2
67.91021370887756,-741,1326,-1061,107710,2
67.95020365715027,-760,1306,-1250,108049,2
67.99025273323059,-885,1371,-1413,108502,2
68.03020000457764,-1139,1407,-1559,108746,2
68.07022619247437,-1332,1348,-1580,108846,2
68.11019992828369,-1186,1403,-1348,108863,2
68.15022253990173,-1116,1414,-1240,108911,2
68.19022512435913,-1218,1342,-1254,108945,2
68.23033142089844,-1257,1191,-1234,109010,2
68.27021098136902,-1190,1159,-1049,108991,2
68.30919623374939,-1033,1214,-822,108233,2
68.3491861820221,-969,1297,-726,107723,2
68.38919520378113,-970,1337,-787,107779,2
68.42955875396729,-1007,1333,-920,108027,2
68.46920776367188,-1107,1365,-1048,108346,2
68.50920248031616,-1108,1425,-1079,108615,2
68.54918313026428,-1107,1448,-1060,108742,2
68.59814810752869,-1047,1504,-1029,108801,2
68.62972450256348,-1037,1510,-1074,108867,2
68.66921639442444,-1038,1445,-1147,108927,2
68.7091772556305,-975,1453,-1158,108982,2
68.74916481971741,-998,1465,-1144,109008,2
68.7884132862091,-1038,1394,-1128,108418,2
68.82818102836609,-996,1415,-1057,107907,2
68.8683831691742,-1038,1400,-1061,107906,2
68.90819478034973,-1156,1382,-1071,108111,2
68.94821810722351,-1174,1396,-1075,108386,2
68.98822855949402,-1022,1354,-1020,108612,2
69.02834010124207,-961,1382,-963,108731,2
69.06822371482849,-960,1379,-1018,108799,2
69.10824036598206,-984,1384,-1115,108854,2
69.14819097518921,-1039,1391,-1158,108943,2
69.18828201293945,-1062,1441,-1129,108996,2
69.22828555107117,-1046,1463,-1081,109006,2
69.26819062232971,-1053,1397,-1081,108324,2
69.30743670463562,-974,1423,-1049,107819,2
69.34732913970947,-919,1419,-1076,107834,2
69.38737750053406,-963,1374,-1140,108025,2
69.42716884613037,-962,1394,-1123,108299,2
69.46717977523804,-982,1386,-1088,108542,2
69.50717568397522,-998,1470,-1054,108712,2
69.54733157157898,-1075,1435,-1128,108800,2
69.58719062805176,-1051,1415,-1194,108868,2
69.62720394134521,-1049,1393,-1183,108947,2
69.66750860214233,-1044,1400,-1083,108995,2
69.70719242095947,-1076,1450,-1017,109025,2
69.74730491638184,-1135,1425,-1072,108533,2
69.78621459007263,-1110,1376,-1189,107965,2
69.82623767852783,-1062,1352,-1174,107920,2
69.86617827415466,-1067,1355,-1106,108089,2
69.90621757507324,-1035,1370,-1071,108328,2
69.94619464874268,-1055,1383,-1036,108587,2
69.9862163066864,-1097,1400,-1027,108777,2
70.02633047103882,-1112,1394,-1061,108882,2
70.0661997795105,-1116,1383,-1034,108951,2
70.10637903213501,-1109,1406,-1005,109002,2
70.14680695533752,-1111,1372,-1034,109059,2
70.18628573417664,-1069,1423,-994,109093,2
70.22626996040344,-994,1443,-1003,108907,2
70.26621651649475,-979,1418,-1074,108308,2
70.30544590950012,-980,1396,-1134,108200,2
70.34530282020569,-966,1420,-1089,108351,2
70.38527131080627,-1087,1421,-1095,108575,2
70.42543578147888,-1075,1418,-1070,108812,2
70.46530818939209,-997,1349,-1105,108954,2
70.50526475906372,-908,1403,-1012,109030,2
70.5454695224762,-923,1411,-1020,109077,2
70.58533930778503,-1011,1394,-1100,109130,2
70.62528038024902,-1129,1445,-1086,109144,2
70.66526699066162,-1167,1435,-1127,109194,2
70.7052538394928,-1079,1431,-1109,108985,2
70.74537110328674,-1046,1399,-1148,108364,2
70.78526878356934,-1054,1368,-1140,108181,2
70.82428622245789,-1074,1375,-1059,108274,2
70.86429786682129,-1034,1402,-990,108471,2
70.90425443649292,-980,1402,-994,108706,2
70.94427061080933,-1015,1397,-1034,108887,2
70.98433041572571,-1051,1394,-1073,109001,2
71.02431774139404,-1059,1409,-1066,109060,2
71.06439995765686,-1015,1427,-1072,109125,2
71.10433673858643,-1004,1398,-1079,109158,2
71.14428043365479,-963,1423,-1050,109187,2
71.18429660797119,-969,1426,-1057,108961,2
71.22429776191711,-987,1439,-1097,108250,2
71.26431488990784,-1023,1438,-1106,108082,2
71.30325365066528,-1063,1444,-1112,108190,2
71.34333848953247,-1035,1438,-1116,108396,2
71.3832471370697,-1032,1433,-1146,108659,2
71.42339515686035,-1078,1407,-1166,108855,2
71.46331882476807,-1098,1396,-1155,108950,2
71.50330948829651,-1116,1396,-1146,109055,2
71.54328227043152,-1118,1373,-1139,109113,2
71.5832691192627,-1128,1370,-1088,109196,2
71.6233241558075,-1025,1353,-1066,109222,2
71.66325736045837,-973,1380,-1014,109062,2
71.70331692695618,-965,1374,-1038,108308,2
71.74329662322998,-981,1386,-1069,108130,2
71.78327322006226,-1039,1375,-1124,108297,2
71.82234573364258,-1052,1375,-1131,108573,2
71.8625476360321,-1018,1413,-1103,108866,2
71.90225863456726,-995,1455,-1145,109043,2
71.94232439994812,-1015,1397,-1194,109122,2
71.98227763175964,-963,1403,-1169,109180,2
72.02226734161377,-964,1421,-1134,109220,2
72.06257629394531,-990,1390,-1172,109254,2
72.10225582122803,-1010,1383,-1173,109254,2
72.14227366447449,-968,1452,-1103,109263,2
72.18233728408813,-1059,1408,-1146,109016,2
72.22227072715759,-1014,1380,-1172,108528,2
72.26242542266846,-975,1417,-1107,108540,2
72.30125737190247,-1001,1387,-1108,108738,2
72.34125709533691,-1055,1397,-1111,108964,2
72.38126611709595,-1048,1397,-1114,109118,2
72.42126798629761,-1047,1399,-1104,109206,2
72.46139764785767,-1031,1410,-1082,109262,2
72.50125503540039,-1000,1407,-1059,109294,2
72.54126310348511,-1031,1392,-1118,109319,2
72.58124661445618,-1022,1358,-1092,109328,2
72.62123847007751,-1020,1429,-994,109334,2
72.66130900382996,-1072,1406,-1009,109198,2
72.70125079154968,-1030,1371,-1042,108673,2
72.74122953414917,-935,1411,-995,108561,2
72.78027510643005,-993,1395,-1043,108697,2
72.82024097442627,-932,1400,-1076,108918,2
72.86023926734924,-950,1433,-1106,109095,2
72.90028548240662,-1036,1420,-1184,109208,2
72.94028186798096,-1049,1431,-1191,109257,2
72.98059630393982,-1083,1436,-1151,109303,2
73.02025437355042,-1102,1398,-1166,109330,2
73.06024312973022,-1050,1326,-1149,109353,2
73.10024690628052,-1030,1330,-1068,109354,2
73.14028525352478,-1027,1349,-1020,109202,2
73.18029069900513,-1042,1331,-1081,108551,2
73.2202558517456,-1070,1306,-1124,108398,2
73.26027965545654,-1144,1330,-1121,108503,2
73.29925441741943,-1084,1336,-1120,108713,2
73.33925008773804,-1012,1348,-1151,108957,2
73.37993383407593,-1023,1307,-1243,109112,2
73.41924929618835,-991,1348,-1172,109189,2
73.45926213264465,-984,1410,-1128,109238,2
73.499272108078,-1056,1350,-1219,109307,2
73.53925132751465,-1055,1372,-1178,109331,2
73.5794243812561,-1052,1399,-1171,109332,2
73.61926794052124,-1052,1383,-1216,109233,2
73.65925335884094,-1131,1305,-1260,108603,2
73.69926166534424,-1089,1302,-1154,108344,2
73.73924160003662,-1086,1247,-1075,108386,2
73.77833604812622,-1036,1317,-967,108576,2
73.818274974823,-1112,1300,-1104,108821,2
73.85826277732849,-1164,1210,-1285,109007,2
73.8983223438263,-1114,1270,-1191,109122,2
73.93825626373291,-1069,1280,-1113,109184,2
73.9784505367279,-1140,1259,-1125,109260,2
74.01831674575806,-1225,1241,-1106,109302,2
74.05825519561768,-1137,1208,-1047,109340,2
74.09823656082153,-965,1223,-993,109309,2
74.13826513290405,-983,1241,-1068,108740,2
74.17828321456909,-1052,1249,-1269,108310,2
74.2183268070221,-1004,1279,-1439,108385,2
74.2582802772522,-971,1319,-1499,108632,2
74.29743814468384,-953,1368,-1439,108907,2
74.33723592758179,-957,1377,-1474,109094,2
74.3772337436676,-903,1329,-1511,109208,2
74.41726613044739,-908,1401,-1510,109270,2
74.45723176002502,-1049,1376,-1617,109333,2
74.49723863601685,-1161,1218,-1758,109363,2
74.53727293014526,-1206,1081,-1685,109409,2
74.57723593711853,-1258,1064,-1356,109411,2
74.61733508110046,-1328,1009,-1075,109314,2
74.65723776817322,-1304,1053,-791,108646,2
74.69727373123169,-1132,1115,-654,108315,2
74.73722982406616,-950,1061,-740,108375,2
74.77626609802246,-884,1137,-795,108569,2
74.81625962257385,-867,1225,-911,108821,2
74.85626721382141,-922,1193,-1151,109045,2
74.89630055427551,-941,1180,-1291,109199,2
74.93626046180725,-955,1377,-1212,109270,2
74.97625255584717,-1069,1478,-1336,109344,2
75.01628375053406,-1145,1379,-1574,109384,2
75.05631041526794,-1109,1345,-1672,109423,2
75.09626412391663,-1057,1396,-1635,109421,2
75.13624906539917,-1084,1213,-1673,109279,2
75.17625617980957,-1277,1070,-1510,108689,2
75.24323630332947,-1485,1152,-1071,108550,2
75.256840467453,-1535,1057,-832,108716,2
75.29525661468506,-1275,1251,-598,108969,2
75.33528995513916,-1100,1354,-700,109190,2
75.37524843215942,-1054,1269,-1106,109320,2
75.41537809371948,-783,1087,-1475,109393,2
75.4553050994873,-380,893,-1727,109464,2
75.4956488609314,-2,919,-1725,109505,2
75.53522777557373,66,1116,-1580,109552,2
75.57525444030762,-274,1252,-1678,109564,2
75.61559391021729,-791,1317,-1876,109571,2
75.65524864196777,-973,1339,-1922,109481,2
75.69532823562622,-793,1325,-1820,109278,2
75.73524141311646,-561,1288,-1712,109285,2
75.77424454689026,-362,1264,-1680,109420,2
75.8144428730011,-338,1109,-1810,109523,2
75.85426735877991,-264,957,-1840,109561,2
75.89423108100891,-185,949,-1659,109618,2
75.93426942825317,-140,1033,-1457,109632,2
75.97423791885376,-128,1077,-1415,109655,2
76.01452159881592,-212,1130,-1491,109671,2
76.054279088974,-560,1197,-1696,109668,2
76.09425854682922,-830,1222,-1866,109655,2
76.13424396514893,-965,1333,-1792,109668,2
76.17425632476807,-840,1326,-1650,109567,2
76.21431684494019,-549,1297,-1523,109372,2
76.25425314903259,-353,1248,-1507,109390,2
76.29325795173645,-212,1238,-1540,109525,2
76.333247423172,-241,1199,-1654,109603,2
76.37325620651245,-163,1182,-1690,109618,2
76.41333246231079,-170,1171,-1611,109646,2
76.45327997207642,-272,1220,-1633,109636,2
76.4933648109436,-344,1309,-1593,109635,2
76.53352642059326,-656,1432,-1523,109648,2
76.5732696056366,-1252,1298,-1185,109616,2
76.61325359344482,-1491,1375,-397,109550,2
76.65323042869568,-1206,1217,184,109451,2
76.6931984424591,-489,1001,828,109386,2
76.73322105407715,124,1019,1820,109513,2
76.77224540710449,-57,1083,2326,109521,2
76.81303215026855,155,924,1778,109530,2
76.852303981781,99,1009,1709,109574,2
76.89228940010071,182,985,1740,109623,2
76.93220925331116,99,915,1735,109635,2
76.9722170829773,163,929,1802,109648,2
77.0129542350769,217,915,1801,109650,2
77.05259132385254,167,906,1887,109641,2
77.09232473373413,216,906,1925,109617,2
77.13227438926697,176,861,1794,109615,2
77.17239665985107,155,871,1855,109586,2
77.21250605583191,156,863,1847,109552,2
77.2522599697113,159,859,1813,109518,2
77.2912061214447,186,855,1864,109549,2
77.33120894432068,116,854,1830,109582,2
77.37124395370483,112,858,1839,109596,2
77.41140031814575,111,871,1920,109618,2
77.45123028755188,121,840,1932,109633,2
77.49123930931091,171,817,1848,109634,2
77.53121137619019,160,840,1821,109612,2
77.5713164806366,123,853,1857,109589,2
77.61121368408203,89,830,1862,109584,2
77.65120840072632,96,843,1891,109563,2
77.69121766090393,140,825,1933,109544,2
77.73127150535583,160,815,1945,109394,2
77.77021265029907,176,826,1896,109275,2
77.81021738052368,164,813,1856,109309,2
77.85022616386414,100,810,1858,109392,2
77.89026522636414,-28,842,1877,109472,2
77.93022608757019,22,901,1918,109505,2
77.97021579742432,46,858,1859,109552,2
78.01024866104126,100,836,1838,109564,2
78.05048418045044,88,839,1771,109570,2
78.09021329879761,90,842,1783,109566,2
78.13031435012817,82,845,1820,109583,2
78.17045998573303,60,864,1872,109598,2
78.21043610572815,4,889,1937,109586,2
78.25075650215149,-54,922,1972,109364,2
78.2894549369812,-173,931,1928,109096,2
78.32943940162659,-322,987,1988,109097,2
78.36927223205566,-400,1066,1965,109226,2
78.40924835205078,-713,1183,1991,109378,2
78.44923830032349,-756,1232,1704,109469,2
78.48926377296448,-902,1288,1357,109516,2
78.53000974655151,-987,1412,1171,109547,2
78.56923151016235,-1151,1492,884,109523,2
78.6092369556427,-1101,1427,289,109507,2
78.64922642707825,-841,1558,-28,109534,2
78.68926477432251,-635,1509,-443,109593,2
78.72823476791382,-509,1489,-744,109577,2
78.76825642585754,-415,1331,-1237,109547,2
78.80826115608215,-360,1304,-1502,109506,2
78.84828996658325,-284,1387,-1498,109543,2
78.88845992088318,-293,1454,-1503,109557,2
78.92840099334717,-316,1445,-1576,109586,2
78.96831035614014,-440,1442,-1571,109579,2
79.00826954841614,-629,1473,-1527,109567,2
79.0482907295227,-536,1477,-1408,109568,2
79.08854937553406,-517,1493,-1339,109581,2
79.12824201583862,-558,1484,-1348,109611,2
79.16878843307495,-407,1358,-1407,109636,2
79.20729303359985,-265,1274,-1386,109664,2
79.24728679656982,-254,1323,-1331,109684,2
79.28729701042175,-227,1383,-1319,109684,2
79.32728290557861,-183,1398,-1418,109602,2
79.36726880073547,-302,1360,-1611,109545,2
79.40725660324097,-355,1368,-1732,109614,2
79.44733500480652,-503,1387,-1798,109655,2
79.48726487159729,-482,1397,-1771,109683,2
79.52781248092651,-326,1376,-1701,109685,2
79.5672619342804,-150,1301,-1688,109707,2
79.60727667808533,-100,1261,-1628,109705,2
79.64724326133728,-52,1232,-1589,109742,2
79.68623208999634,49,1170,-1592,109767,2
79.7263069152832,144,1156,-1583,109770,2
79.76624512672424,165,1232,-1504,109786,2
79.80627417564392,63,1353,-1482,109806,2
79.84634828567505,-169,1368,-1622,109777,2
79.88638305664062,-242,1334,-1778,109708,2
79.92627358436584,-319,1272,-1866,109683,2
79.96625828742981,-310,1305,-1734,109712,2
80.00626564025879,-291,1326,-1567,109728,2
80.0473985671997,-298,1318,-1498,109745,2
80.08625936508179,-253,1319,-1477,109752,2
80.12629389762878,-214,1307,-1495,109782,2
80.1653892993927,-244,1235,-1551,109793,2
80.20547246932983,-181,1232,-1532,109816,2
80.24525952339172,-96,1293,-1485,109829,2
80.28528118133545,-148,1319,-1526,109855,2
80.32527542114258,-200,1384,-1600,109847,2
80.36532235145569,-307,1379,-1729,109842,2
80.40524792671204,-432,1321,-1787,109772,2
80.4453387260437,-421,1343,-1621,109705,2
80.48526525497437,-411,1366,-1454,109717,2
80.52525544166565,-295,1384,-1387,109763,2
80.56549859046936,-180,1340,-1443,109771,2
80.60549855232239,-173,1223,-1558,109801,2
80.64541435241699,-60,1185,-1552,109839,2
80.68427538871765,-16,1217,-1476,109867,2
80.72423529624939,8,1258,-1410,109888,2
80.76430177688599,-81,1334,-1432,109898,2
80.80436301231384,-247,1324,-1609,109913,2
80.84426188468933,-641,1266,-1794,109950,2
80.88425874710083,-720,1349,-1738,109938,2
80.92427110671997,-785,1367,-1611,109796,2
80.96427583694458,-1031,1358,-1527,109650,2
81.00428748130798,-1070,1362,-1368,109597,2
81.04429697990417,-1027,1348,-1222,109635,2
81.08427667617798,-856,1308,-1150,109709,2
81.12426614761353,-718,1279,-1099,109750,2
81.16343545913696,-884,1328,-874,109769,2
81.2033109664917,-1186,1392,-557,109755,2
81.24327635765076,-1400,1355,-102,109759,2
81.28331136703491,-1249,1340,521,109755,2
81.32326984405518,-942,1275,1075,109812,2
81.36400079727173,-707,1345,1671,109832,2
81.40325331687927,-619,1307,1824,109814,2
81.44331359863281,-347,1288,1802,109656,2
81.48324704170227,-230,1208,1761,109093,2
81.52328777313232,-191,1154,1673,108780,2
81.56543779373169,-129,1135,1626,108826,2
81.60338497161865,-133,1115,1567,108990,2
81.6432774066925,-147,1135,1565,109171,2
81.68324518203735,-175,1136,1606,109302,2
81.72223854064941,-231,1140,1728,109363,2
81.76243686676025,-184,1153,1823,109414,2
81.80228328704834,-147,1168,1795,109454,2
81.84226632118225,-146,1172,1780,109505,2
81.9098379611969,-165,1174,1775,109532,2
81.92392587661743,-242,1161,1688,109571,2
81.96232509613037,-318,1159,1665,109577,2
82.00229072570801,-382,1187,1621,109394,2
82.04227566719055,-393,1217,1526,108797,2
82.08225655555725,-501,1233,1456,108609,2
82.12226295471191,-632,1280,1476,108679,2
82.16241955757141,-615,1286,1504,108909,2
82.20227098464966,-716,1204,1341,109168,2
82.24128866195679,-636,1230,1381,109311,2
82.28132724761963,-785,1215,1373,109382,2
82.3212616443634,-878,1266,1505,109420,2
82.361257314682,-906,1225,1437,109477,2
82.40186023712158,-1004,1206,1396,109531,2
82.44127368927002,-998,1179,1321,109587,2
82.4814236164093,-999,1166,1203,109581,2
82.5212607383728,-1030,1202,1146,109582,2
82.56128811836243,-1219,1217,1205,109475,2
82.60138630867004,-1258,1219,1243,109092,2
82.64128541946411,-1264,1215,1167,108862,2
82.68129420280457,-1161,1185,1065,108973,2
82.72125697135925,-1000,1218,823,109198,2
82.76024961471558,-1045,1359,657,109356,2
82.80026483535767,-1452,1393,630,109440,2
82.8402886390686,-1805,1312,525,109480,2
82.88044285774231,-1717,1296,474,109529,2
82.9202892780304,-1565,1315,441,109551,2
82.96029114723206,-1456,1245,265,109576,2
83.00027871131897,-1416,1173,184,109607,2
83.04027438163757,-1291,1154,214,109609,2
83.08027672767639,-1241,1224,323,109582,2
83.12030386924744,-1465,1302,498,109338,2
83.1603033542633,-1629,1321,531,108731,2
83.20037174224854,-1711,1366,533,108568,2
83.24027585983276,-1713,1332,476,108685,2
83.27969765663147,-1607,1239,326,108914,2
83.31931519508362,-1490,1245,315,109146,2
83.35930299758911,-1453,1228,309,109286,2
83.39925622940063,-1503,1268,375,109365,2
83.43928527832031,-1563,1258,364,109408,2
83.47988104820251,-1574,1274,361,109470,2
83.51928639411926,-1608,1271,383,109523,2
83.5594072341919,-1575,1244,395,109564,2
83.59930038452148,-1545,1268,383,109582,2
83.63932704925537,-1479,1259,375,109548,2
83.68053579330444,-1491,1251,345,108992,2
83.71929860115051,-1504,1256,308,108458,2
83.75932335853577,-1574,1271,270,108478,2
83.79828906059265,-1644,1260,268,108647,2
83.83828139305115,-1633,1258,273,108906,2
83.87830185890198,-1603,1253,300,109146,2
83.9182755947113,-1598,1238,314,109300,2
83.95827126502991,-1542,1267,380,109357,2
83.99829077720642,-1526,1246,332,109421,2
84.0382821559906,-1602,1227,363,109503,2
84.07835412025452,-1632,1233,434,109540,2
84.11832332611084,-1581,1213,399,109589,2
84.15829730033875,-1523,1217,362,109597,2
84.19834113121033,-1515,1214,397,109579,2
84.23831009864807,-1568,1227,433,108940,2
84.27827739715576,-1558,1217,391,108379,2
84.31826281547546,-1581,1224,371,108345,2
84.3573739528656,-1593,1231,376,108498,2
84.3973741531372,-1606,1246,366,108744,2
84.43728685379028,-1551,1251,369,109020,2
84.4773302078247,-1557,1256,382,109206,2
84.5172986984253,-1588,1264,414,109287,2
84.55727481842041,-1595,1261,395,109364,2
84.59737467765808,-1580,1251,385,109444,2
84.63727951049805,-1566,1243,382,109509,2
84.6772928237915,-1575,1228,399,109557,2
84.71729826927185,-1531,1209,398,109595,2
84.75727796554565,-1528,1224,422,109632,2
84.79743528366089,-1537,1229,448,109389,2
84.83731317520142,-1554,1200,398,108620,2
84.8775086402893,-1546,1221,402,108409,2
84.91679692268372,-1539,1210,390,108566,2
84.95628547668457,-1661,1186,392,108849,2
84.99659037590027,-1609,1209,445,109136,2
85.03629612922668,-1565,1208,471,109311,2
85.0763373374939,-1532,1185,459,109383,2
85.11630058288574,-1535,1168,455,109453,2
85.15634346008301,-1593,1133,409,109509,2
85.19676518440247,-1547,1123,362,109566,2
85.23634886741638,-1512,1107,302,109599,2
85.2763261795044,-1582,1089,339,109618,2
85.31632494926453,-1640,1107,427,109654,2
85.35632848739624,-1768,1112,498,109482,2
85.39660406112671,-1868,1097,578,108693,2
85.43631148338318,-1817,1076,682,108359,2
85.47529149055481,-1754,1026,762,108410,2
85.51528882980347,-1662,978,797,108604,2
85.55527377128601,-1504,970,742,108882,2
85.59529566764832,-1418,941,630,109115,2
85.63529229164124,-1480,941,507,109252,2
85.6753282546997,-1576,991,456,109341,2
85.71529483795166,-1560,1040,455,109425,2
85.75531816482544,-1566,1078,436,109498,2
85.79540634155273,-1491,1100,442,109557,2
85.83531308174133,-1564,1114,429,109590,2
85.8752908706665,-1529,1116,357,109611,2
85.91529488563538,-1574,1102,362,109303,2
85.95528936386108,-1772,1128,369,108470,2
85.9954559803009,-1669,1122,332,108311,2
86.03529214859009,-1605,1099,305,108407,2
86.07431149482727,-1753,1066,405,108589,2
86.11433482170105,-1722,1050,333,108864,2
86.1543538570404,-1650,1029,293,109054,2
86.19430136680603,-1823,999,381,109146,2
86.23427653312683,-1765,832,442,109182,2
86.27428650856018,-1951,765,619,109217,2
86.31488347053528,-1712,724,470,109290,2
86.35429835319519,-1382,644,282,109398,2
86.39429664611816,-1550,595,225,109460,2
86.43433737754822,-1717,608,342,109427,2
86.47440218925476,-1551,525,284,108661,2
86.51472687721252,-1720,372,328,107978,2
86.55432605743408,-2090,216,324,107868,2
86.59430718421936,-2163,246,410,107904,2
86.63329148292542,-1781,204,224,108009,2
86.67331457138062,-1857,161,107,108168,2
86.71391320228577,-2039,120,151,108241,2
86.75328731536865,-2263,118,233,108262,2
86.79331183433533,-2304,123,269,108265,2
86.8333067893982,-2305,145,275,108312,2
86.87329602241516,-2126,49,342,108372,2
86.91368412971497,-2061,-31,400,108431,2
86.95331835746765,-2002,-219,289,108530,2
86.99333882331848,-2242,-348,175,108568,2
87.03330826759338,-2243,-469,116,108028,2
87.07338356971741,-2131,-651,-335,107546,2
87.11351799964905,-2159,-762,-701,107484,2
87.15336394309998,-1948,-644,-483,107491,2
87.19234681129456,-1561,-600,-738,107544,2
87.23248863220215,-1506,-645,-1276,107741,2
87.27232885360718,-1257,-735,-1659,107863,2
87.3124041557312,-1413,-591,-1585,107876,2
87.3523907661438,-1353,-726,-1932,107877,2
87.3929033279419,-1266,-740,-1918,107914,2
87.43235611915588,-1198,-568,-1804,107932,2
87.4723916053772,-1009,-559,-1778,108002,2
87.51239204406738,-890,-502,-1637,108057,2
87.55234575271606,-764,-429,-1502,108109,2
87.59235143661499,-942,-508,-1586,108294,2
87.63241243362427,-1053,-529,-1812,108068,2
87.67234754562378,-1079,-465,-1865,107426,2
87.71236324310303,-982,-472,-1862,107232,2
87.75131893157959,-853,-441,-1829,107297,2
87.79137396812439,-801,-415,-1895,107459,2
87.8313980102539,-841,-468,-1915,107655,2
87.87137722969055,-828,-382,-1804,107832,2
87.95132565498352,-936,-350,-1837,107940,2
87.9531192779541,-832,-346,-1794,107961,2
87.99133896827698,-1198,-507,-2960,107883,2
88.03137993812561,-525,-199,-1592,107797,2
88.0713324546814,-683,-381,-1945,107873,2
88.11135196685791,-951,-430,-1875,107897,2
88.15135192871094,-1093,432,-2048,107977,2
88.19133567810059,-483,254,-1766,108222,2
88.23134136199951,-655,19,-2067,108547,2
88.27134895324707,-567,-137,-1920,108684,2
88.31132578849792,-899,-206,-1976,108447,2
88.35031342506409,-855,33,-1900,108256,2
88.39030361175537,-723,67,-1899,108298,2
88.4302875995636,-782,-1,-1982,108504,2
88.47033047676086,-877,-64,-1944,108787,2
88.5107171535492,-721,77,-1881,109016,2
88.55034160614014,-624,72,-1902,109194,2
88.5903308391571,-611,-29,-2004,109329,2
88.63124585151672,-707,18,-1989,109477,2
88.67041397094727,-787,26,-1912,109617,2
88.710378408432,-809,28,-1972,109751,2
88.75035881996155,-761,14,-1960,109874,2
88.79036402702332,-759,-9,-1978,109961,2
88.83032631874084,-737,56,-1911,110008,2
88.87034678459167,-719,34,-1926,110051,2
88.90932297706604,-738,-39,-2039,109989,2
88.94931674003601,-728,34,-1963,109951,2
88.98930382728577,-735,26,-1953,110005,2
89.02948594093323,-716,30,-1921,110052,2
89.0693154335022,-674,25,-2001,110085,2
89.10932874679565,-643,48,-1956,110104,2
89.14931964874268,-675,24,-1997,110172,2
89.18930578231812,-692,59,-1961,110184,2
89.2296690940857,-674,52,-1946,110181,2
89.26935386657715,-678,10,-1973,110153,2
89.30933737754822,-733,31,-1964,110139,2
89.34931373596191,-686,36,-1981,110145,2
89.38932585716248,-641,36,-1958,110146,2
89.42947840690613,-723,42,-1985,110182,2
89.46934580802917,-730,19,-1959,110176,2
89.50831341743469,-674,52,-1934,110119,2
89.54838228225708,-686,23,-1992,109978,2
89.58832335472107,-699,28,-1980,109811,2
89.62835049629211,-673,43,-1977,109712,2
89.66831707954407,-687,41,-1963,109696,2
89.70831489562988,-707,34,-1939,109752,2
89.74832963943481,-719,-36,-2014,109801,2
89.78832530975342,-677,62,-1927,109850,2
89.82832837104797,-796,-9,-1993,109856,2
89.86836647987366,-713,26,-1933,109871,2
89.90838146209717,-653,8,-1987,109895,2
89.94837760925293,-716,44,-1950,109924,2
89.98835110664368,-744,26,-1952,109996,2
90.0283362865448,-693,-1,-1998,110051,2
90.06738710403442,-708,13,-1961,110054,2
90.10732936859131,-835,-26,-2024,109912,2
90.14733076095581,-666,39,-1947,109628,2
90.18734121322632,-619,41,-1938,109451,2
90.22733330726624,-745,-9,-2002,109406,2
90.2673237323761,-698,31,-1960,109492,2
90.3073182106018,-638,3,-1993,109587,2
90.34732604026794,-672,29,-1978,109643,2
90.38733673095703,-754,25,-1950,109662,2
90.42753458023071,-666,37,-1951,109689,2
90.4675657749176,-678,-16,-1999,109716,2
90.50735259056091,-726,31,-1938,109756,2
90.54745697975159,-711,33,-1937,109827,2
90.58631896972656,-711,-2,-2007,109868,2
90.6263198852539,-738,2,-1974,109922,2
90.66633009910583,-668,16,-1986,109891,2
90.70634484291077,-678,15,-1954,109656,2
90.74676990509033,-700,24,-1983,109431,2
90.7863998413086,-669,17,-1983,109361,2
90.82638359069824,-679,39,-1941,109366,2
90.8663420677185,-720,24,-1972,109448,2
90.90633201599121,-649,25,-1987,109514,2
90.94648861885071,-685,45,-1942,109570,2
90.98633933067322,-693,7,-1996,109623,2
91.02636432647705,-660,19,-1979,109693,2
91.06636548042297,-708,30,-1985,109764,2
91.10532760620117,-709,38,-1962,109845,2
91.14550280570984,-656,39,-1975,109922,2
91.18532419204712,-688,23,-1966,109967,2
91.22537875175476,-685,43,-1943,110012,2
91.26536893844604,-717,12,-1961,109922,2
91.30534338951111,-680,27,-1971,109637,2
91.34543538093567,-702,36,-1943,109361,2
91.38536071777344,-685,11,-1964,109276,2
91.42532873153687,-716,7,-1989,109271,2
91.46584963798523,-655,33,-1943,109318,2
91.50533747673035,-700,36,-1973,109401,2
91.54539847373962,-687,25,-1974,109467,2
91.5853841304779,-696,21,-1970,109531,2
91.62437415122986,-669,28,-1990,109591,2
91.66434955596924,-700,22,-1965,109648,2
91.70435070991516,-709,40,-1951,109699,2
91.74432706832886,-665,22,-1977,109788,2
91.78434538841248,-680,37,-1953,109868,2
91.82433795928955,-672,9,-1995,109922,2
91.86456561088562,-692,43,-1946,109957,2
91.90435671806335,-710,32,-1959,109877,2
91.94434142112732,-674,11,-1996,109576,2
91.98434400558472,-709,20,-1957,109341,2
92.02436184883118,-684,18,-1967,109267,2
92.06449389457703,-708,24,-1972,109280,2
92.10434007644653,-692,39,-1952,109376,2
92.14333724975586,-693,18,-1964,109495,2
92.18346977233887,-700,32,-1965,109596,2
92.22332978248596,-719,42,-1963,109656,2
92.26352310180664,-689,40,-1962,109717,2
92.30334877967834,-695,52,-1953,109804,2
92.34336233139038,-723,33,-1961,109883,2
92.38335013389587,-678,23,-1968,109938,2
92.42336630821228,-687,49,-1952,109991,2
92.46429324150085,-684,47,-1973,110032,2
92.50336503982544,-682,51,-1964,110050,2
92.54358053207397,-736,49,-1942,110029,2
92.58335185050964,-667,51,-1964,109848,2
92.62335324287415,-680,43,-1985,109605,2
92.66383624076843,-692,48,-1951,109486,2
92.70240235328674,-693,49,-1964,109482,2
92.7424430847168,-680,53,-1960,109519,2
92.78237271308899,-698,39,-1969,109605,2
92.82237362861633,-699,30,-1973,109705,2
92.8624529838562,-698,41,-1971,109760,2
92.90235805511475,-707,35,-1955,109811,2
92.94237351417542,-696,48,-1958,109847,2
92.98235988616943,-685,33,-2003,109876,2
93.02234697341919,-692,61,-1970,109884,2
93.0624668598175,-656,40,-1950,109930,2
93.10234832763672,-697,15,-2007,109969,2
93.14237833023071,-710,51,-1957,110001,2
93.18273329734802,-687,33,-1972,109904,2
93.2214560508728,-698,18,-1979,109664,2
93.26142811775208,-672,52,-1953,109527,2
93.30137920379639,-719,38,-1970,109491,2
93.34138488769531,-666,32,-1976,109539,2
93.3814206123352,-686,24,-1974,109623,2
93.42140507698059,-689,31,-1970,109695,2
93.4614040851593,-678,44,-1957,109748,2
93.50139045715332,-684,27,-1985,109765,2
93.5414867401123,-698,34,-1981,109803,2
93.58138751983643,-717,32,-1965,109807,2
93.62143158912659,-673,33,-1965,109851,2
93.66150784492493,-648,8,-1995,109893,2
93.70143914222717,-696,39,-1958,109958,2
93.74140429496765,-702,34,-1984,109992,2
93.78071284294128,-647,33,-1982,109881,2
93.82040739059448,-701,26,-1975,109657,2
93.86042046546936,-696,44,-1971,109528,2
93.90039324760437,-669,26,-1980,109536,2
93.94040989875793,-681,17,-1984,109582,2
93.98039984703064,-680,41,-1950,109660,2
94.02040100097656,-718,21,-1994,109710,2
94.06040716171265,-657,26,-1962,109742,2
94.10039043426514,-707,29,-1968,109742,2
94.14040613174438,-657,39,-1955,109758,2
94.18083000183105,-700,13,-1998,109773,2
94.22039127349854,-672,34,-1966,109834,2
94.2603931427002,-702,43,-1966,109897,2
94.29945182800293,-679,33,-1956,109902,2
94.33938813209534,-669,44,-1970,109726,2
94.37985229492188,-713,27,-1969,109520,2
94.41936731338501,-679,41,-1966,109418,2
94.45941162109375,-719,32,-1961,109416,2
94.49940013885498,-693,48,-1957,109482,2
94.53956651687622,-673,41,-1972,109533,2
94.57987260818481,-698,36,-1957,109592,2
94.61938619613647,-701,39,-1975,109609,2
94.65954422950745,-669,53,-1976,109646,2
94.69938969612122,-684,40,-1966,109660,2
94.73937463760376,-705,52,-1958,109709,2
94.77943325042725,-683,44,-1980,109777,2
94.81842494010925,-702,18,-1991,109843,2
94.85836148262024,-716,49,-1948,109898,2
94.89843654632568,-696,50,-1957,109787,2
94.93842887878418,-682,45,-1976,109526,2
94.97840619087219,-698,55,-1949,109323,2
95.01837277412415,-712,35,-1976,109277,2
95.05839133262634,-680,39,-1970,109277,2
95.09843611717224,-667,43,-1962,109314,2
95.1384162902832,-672,35,-1970,109364,2
95.19889760017395,-721,40,-1965,109387,2
95.21837997436523,-689,53,-1967,109388,2
95.2583601474762,-697,46,-1964,109399,2
95.29840421676636,-702,52,-1952,109425,2
95.33840298652649,-694,49,-1970,109470,2
95.37738990783691,-678,57,-1978,109517,2
95.41740942001343,-702,21,-1952,109564,2
95.45741629600525,-688,48,-1955,109603,2
95.49737691879272,-704,35,-1962,109448,2
95.5374059677124,-726,37,-1982,109237,2
95.57750463485718,-690,52,-1959,109123,2
95.6173665523529,-698,28,-1982,109088,2
95.65740656852722,-704,47,-1945,109095,2
95.69747233390808,-711,30,-1979,109126,2
95.73736667633057,-688,42,-1955,109193,2
95.77734923362732,-708,44,-1962,109204,2
95.8173840045929,-674,28,-1977,109261,2
95.85739278793335,-715,42,-1986,109300,2
95.89658093452454,-679,57,-1957,109339,2
95.93637132644653,-688,30,-1981,109376,2
95.97636842727661,-716,47,-1968,109444,2
96.01641130447388,-696,34,-1989,109523,2
96.05641555786133,-671,43,-1963,109538,2
96.09667134284973,-735,45,-1964,109381,2
96.13638758659363,-645,34,-1975,109121,2
96.17637062072754,-712,44,-1956,109037,2
96.21638751029968,-716,51,-1971,109024,2
96.2564013004303,-648,30,-1968,109043,2
96.29660844802856,-736,26,-1961,109108,2
96.33651089668274,-703,56,-1942,109135,2
96.37639999389648,-660,33,-1994,109194,2
96.41544342041016,-707,31,-1966,109217,2
96.45539927482605,-719,36,-1967,109236,2
96.49540209770203,-706,33,-1980,109273,2
96.53538179397583,-676,42,-1942,109313,2
96.57563972473145,-714,37,-1986,109377,2
96.61544299125671,-711,47,-1968,109409,2
96.65539145469666,-646,46,-1972,109260,2
96.69540143013,-640,36,-1976,109024,2
96.73542404174805,-735,50,-1936,108912,2
96.77540612220764,-756,65,-1950,108897,2
96.81552529335022,-690,35,-1965,108941,2
96.85539364814758,-656,6,-1998,108996,2
96.89538908004761,-705,48,-1948,109058,2
96.93539452552795,-693,34,-1982,109093,2
96.97441053390503,-675,42,-1988,109102,2
97.01435828208923,-699,43,-1939,109132,2
97.05440092086792,-709,44,-1961,109166,2
97.0944414138794,-679,41,-1980,109206,2
97.13438940048218,-750,59,-1937,109270,2
97.1744134426117,-705,38,-1965,109264,2
97.21475553512573,-674,31,-1976,109077,2
97.25442600250244,-696,52,-1964,108881,2
97.29440331459045,-709,49,-1954,108766,2
97.3343870639801,-705,54,-1949,108759,2
97.37444925308228,-703,32,-1989,108772,2
97.41472673416138,-706,29,-1990,108848,2
97.4543981552124,-689,63,-1928,108920,2
97.49339818954468,-684,41,-1979,108986,2
97.53343677520752,-659,54,-1947,109027,2
97.57341480255127,-729,59,-1950,109066,2
97.61380314826965,-711,37,-1970,109122,2
97.65340328216553,-699,45,-1980,109171,2
97.69343185424805,-675,46,-1948,109262,2
97.73342514038086,-706,60,-1957,109287,2
97.77339029312134,-709,55,-1970,109146,2
97.81341290473938,-691,58,-1963,108856,2
97.85339403152466,-685,65,-1961,108742,2
97.89339995384216,-720,45,-1974,108714,2
97.93338942527771,-695,57,-1970,108749,2
97.97340989112854,-688,61,-1959,108813,2
98.0125834941864,-723,63,-1954,108875,2
98.05241179466248,-713,55,-1963,108904,2
98.09241724014282,-699,43,-1969,108922,2
98.13245463371277,-666,69,-1963,108944,2
98.17239570617676,-687,38,-1964,108982,2
98.21250462532043,-710,55,-1956,109020,2
98.25240802764893,-720,35,-1968,109050,2
98.29239535331726,-687,57,-1950,109079,2
98.33236169815063,-729,50,-1977,109089,2
98.37241673469543,-715,56,-1957,108981,2
98.41239786148071,-711,30,-1973,108714,2
98.45239615440369,-655,62,-1959,108612,2
98.49240136146545,-736,41,-1953,108581,2
98.531409740448,-699,35,-1960,108618,2
98.5714156627655,-715,31,-1959,108664,2
98.61142110824585,-706,60,-1967,108729,2
98.65141987800598,-717,53,-1954,108760,2
98.69142484664917,-671,42,-1963,108778,2
98.73140144348145,-731,21,-1983,108811,2
98.77142763137817,-714,47,-1942,108838,2
98.81143307685852,-729,13,-1984,108866,2
98.85142302513123,-710,56,-1952,108889,2
98.89141321182251,-751,45,-1946,108943,2
98.93149971961975,-675,38,-1957,108991,2
98.97139716148376,-722,31,-1990,109047,2
99.01139736175537,-713,57,-1929,109119,2
99.05042123794556,-717,25,-1982,108976,2
99.09041118621826,-699,46,-1975,108713,2
99.13073229789734,-726,55,-1946,108616,2
99.17041635513306,-715,42,-1970,108622,2
99.21045112609863,-704,41,-1971,108655,2
99.2504506111145,-726,64,-1945,108728,2
99.29040575027466,-735,25,-1974,108779,2
99.33096241950989,-692,35,-1963,108790,2
99.37041330337524,-730,39,-1968,108775,2
99.41042184829712,-706,52,-1961,108788,2
99.45061206817627,-714,51,-1961,108822,2
99.49042320251465,-703,48,-1959,108879,2
99.53114318847656,-683,41,-1965,108945,2
99.56943869590759,-721,56,-1950,109020,2
99.60944843292236,-723,52,-1966,109080,2
99.64941167831421,-715,28,-1973,109113,2
99.68940782546997,-658,66,-1938,108930,2
99.72986006736755,-762,34,-1970,108691,2
99.76941251754761,-728,38,-1955,108628,2
99.8094642162323,-696,59,-1956,108620,2
99.84946012496948,-728,42,-1969,108665,2
99.8894271850586,-714,53,-1942,108705,2
99.93211650848389,-745,38,-1975,108769,2
99.96942973136902,-720,67,-1945,108769,2
100.00940728187561,-699,39,-1962,108778,2
100.04944014549255,-681,58,-1965,108807,2
100.08845949172974,-731,79,-1915,108854,2
100.12844800949097,-724,39,-1977,108894,2
100.1684296131134,-709,35,-1973,108954,2
100.20843434333801,-735,59,-1946,108999,2
100.24859285354614,-746,49,-1958,108973,2
100.28841614723206,-706,41,-1963,108741,2
100.32845640182495,-727,28,-1979,108577,2
100.3684229850769,-751,54,-1936,108514,2
100.40849876403809,-727,48,-1955,108493,2
100.4483847618103,-720,37,-1971,108544,2
100.48847317695618,-708,50,-1941,108590,2
100.52843570709229,-757,46,-1955,108662,2
100.56845688819885,-708,69,-1925,108686,2
100.60743474960327,-717,29,-1973,108709,2
100.64749526977539,-678,36,-1955,108745,2
100.68749904632568,-750,75,-1924,108804,2
100.72744464874268,-762,43,-1966,108884,2
100.76746487617493,-691,53,-1952,108945,2
100.80744576454163,-720,25,-1974,109033,2
100.84743165969849,-767,50,-1942,109051,2
100.88744306564331,-706,62,-1951,108829,2
100.9274320602417,-710,39,-1972,108594,2
100.96743607521057,-728,62,-1934,108529,2
101.00745415687561,-741,57,-1951,108534,2
101.04745483398438,-708,56,-1953,108584,2
101.08742570877075,-710,65,-1939,108674,2
101.12644982337952,-719,54,-1940,108741,2
101.16645646095276,-739,69,-1950,108795,2
101.2064471244812,-726,55,-1960,108821,2
101.24671959877014,-728,48,-1952,108854,2
101.28644967079163,-713,58,-1954,108903,2
101.32645440101624,-735,58,-1958,108973,2
101.36647486686707,-746,72,-1927,109040,2
101.40644335746765,-740,60,-1965,109093,2
101.44665098190308,-701,57,-1958,109135,2
101.4864661693573,-779,53,-1959,109142,2
101.52644753456116,-738,71,-1938,108814,2
101.56648826599121,-771,65,-1923,108546,2
101.6064772605896,-655,57,-1966,108498,2
101.64548373222351,-637,28,-1974,108543,2
101.68545889854431,-692,72,-1968,108596,2
101.72544932365417,-753,77,-1943,108653,2
101.76543116569519,-734,64,-1953,108714,2
101.80543327331543,-693,47,-1992,108723,2
101.84545612335205,-745,32,-2002,108767,2
101.88544487953186,-794,102,-1907,108799,2
101.92547106742859,-754,86,-1926,108836,2
101.96546244621277,-749,37,-1972,108853,2
102.0054497718811,-710,46,-1964,108880,2
102.04548478126526,-714,68,-1933,108930,2
102.0854287147522,-743,43,-1945,108989,2
102.14088034629822,-769,49,-1942,109073,2
102.16550087928772,-757,53,-1937,109112,2
102.20444536209106,-739,45,-1942,108903,2
102.24447464942932,-718,38,-1972,108673,2
102.28444623947144,-748,34,-1974,108597,2
102.32447481155396,-704,60,-1957,108622,2
102.3644380569458,-737,29,-1973,108678,2
102.40445494651794,-725,40,-1939,108780,2
102.44444441795349,-757,31,-1965,108832,2
102.48445415496826,-729,49,-1966,108848,2
102.52443289756775,-721,52,-1943,108812,2
102.56463623046875,-717,26,-1978,108837,2
102.60444259643555,-710,54,-1948,108866,2
102.64446544647217,-717,46,-1961,108955,2
102.68461847305298,-743,50,-1973,109047,2
102.72347927093506,-692,54,-1944,109135,2
102.76349782943726,-733,51,-1962,109203,2
102.80348515510559,-761,54,-1952,109142,2
102.84346890449524,-705,56,-1955,108884,2
102.8834593296051,-751,25,-1980,108674,2
102.92347240447998,-761,51,-1934,108648,2
102.96362614631653,-711,71,-1945,108657,2
103.00347137451172,-745,47,-1946,108707,2
103.04347085952759,-726,56,-1940,108739,2
103.08344602584839,-757,45,-1956,108790,2
103.12346148490906,-721,40,-1968,108829,2
103.16374039649963,-709,75,-1934,108886,2
103.20347547531128,-763,78,-1926,108945,2
103.24246501922607,-706,51,-1956,109012,2
103.28246593475342,-720,56,-1956,109086,2
103.32247543334961,-732,73,-1929,109146,2
103.36300468444824,-769,31,-1980,109213,2
103.40245342254639,-719,66,-1941,109236,2
103.44249081611633,-802,52,-1950,109031,2
103.48248529434204,-715,71,-1929,108767,2
103.52246522903442,-755,56,-1953,108666,2
103.56252527236938,-766,56,-1944,108641,2
103.60246109962463,-740,56,-1946,108642,2
103.642582654953,-736,62,-1953,108728,2
103.68297696113586,-775,75,-1929,108792,2
103.72246599197388,-763,81,-1935,108867,2
103.76267981529236,-730,84,-1938,108908,2
103.80149507522583,-710,58,-1956,108933,2
103.84146785736084,-713,68,-1959,108950,2
103.88163614273071,-776,56,-1952,108994,2
103.9214928150177,-779,85,-1914,109072,2
103.96165871620178,-760,59,-1958,109128,2
104.00147366523743,-786,59,-1958,109208,2
104.04148387908936,-754,98,-1913,109137,2
104.08146071434021,-736,51,-1944,108839,2
104.12146544456482,-719,43,-1985,108616,2
104.1615343093872,-748,58,-1955,108575,2
104.20149421691895,-765,73,-1933,108585,2
104.24147725105286,-738,50,-1955,108673,2
104.28161001205444,-724,79,-1947,108769,2
104.32048726081848,-763,65,-1925,108822,2
104.36048531532288,-726,55,-1963,108843,2
104.4005537033081,-727,49,-1948,108875,2
104.44046807289124,-767,56,-1959,108902,2
104.48056387901306,-744,27,-1965,108978,2
104.52050590515137,-736,43,-1950,109056,2
104.5604727268219,-742,47,-1947,109112,2
104.60047245025635,-742,63,-1946,109167,2
104.64047050476074,-721,36,-1973,109216,2
104.6807975769043,-733,55,-1949,109192,2
104.72046899795532,-731,52,-1946,108910,2
104.76045894622803,-745,53,-1959,108707,2
104.80047869682312,-739,45,-1963,108665,2
104.83945608139038,-719,54,-1931,108691,2
104.88043785095215,-731,33,-1969,108755,2
104.91948890686035,-740,45,-1954,108828,2
104.95946550369263,-774,43,-1944,108870,2
104.99944281578064,-707,31,-1981,108912,2
105.0394959449768,-784,46,-1955,108938,2
105.079580783844,-754,77,-1911,108983,2
105.11945533752441,-699,49,-1949,109023,2
105.1594729423523,-724,34,-1965,109082,2
105.19945001602173,-753,69,-1948,109172,2
105.23948669433594,-731,69,-1946,109240,2
105.27954387664795,-746,72,-1940,109243,2
105.31947779655457,-703,61,-1942,108984,2
105.35845446586609,-729,49,-1958,108775,2
105.39853954315186,-795,55,-1940,108712,2
105.43847870826721,-747,48,-1947,108747,2
105.47847700119019,-751,55,-1943,108810,2
105.51849484443665,-763,64,-1946,108903,2
105.55848836898804,-760,76,-1926,108937,2
105.59870028495789,-755,53,-1964,108947,2
105.63846015930176,-711,58,-1944,108958,2
105.67847537994385,-731,45,-1961,108973,2
105.71846675872803,-770,78,-1914,109037,2
105.75846910476685,-788,71,-1939,109086,2
105.79853677749634,-723,62,-1960,109190,2
105.83848404884338,-763,64,-1957,109269,2
105.87747716903687,-760,92,-1918,109189,2
105.91844749450684,-754,73,-1930,108919,2
105.95751929283142,-742,43,-1973,108767,2
105.99767851829529,-750,56,-1922,108746,2
106.03750085830688,-775,83,-1933,108756,2
106.07751035690308,-740,58,-1953,108824,2
106.11749076843262,-748,83,-1936,108868,2
106.15750646591187,-785,74,-1944,108904,2
106.1978530883789,-744,71,-1942,108903,2
106.23751664161682,-744,75,-1938,108935,2
106.27753472328186,-755,81,-1928,108949,2
106.3174774646759,-729,64,-1957,109037,2
106.35746812820435,-754,69,-1935,109087,2
106.39672374725342,-777,65,-1959,109130,2
106.43649506568909,-753,72,-1943,109184,2
106.47650742530823,-764,66,-1948,109132,2
106.51648426055908,-761,56,-1948,108890,2
106.55650186538696,-789,67,-1935,108711,2
106.59748077392578,-737,71,-1929,108667,2
106.63650345802307,-740,38,-1961,108658,2
106.67650508880615,-743,55,-1956,108690,2
106.71644806861877,-763,78,-1930,108716,2
106.75649642944336,-764,81,-1932,108773,2
106.7967529296875,-741,81,-1942,108765,2
106.83650612831116,-740,68,-1955,108800,2
106.87650918960571,-747,61,-1941,108843,2
106.9154782295227,-757,56,-1944,108890,2
106.95547699928284,-772,44,-1952,108974,2
106.99551773071289,-786,64,-1951,109033,2
107.03552532196045,-738,53,-1946,109130,2
107.07553339004517,-756,61,-1969,109199,2
107.11565732955933,-768,74,-1917,109226,2
107.15554547309875,-713,66,-1949,108960,2
107.19564270973206,-745,68,-1958,108729,2
107.23556113243103,-809,79,-1943,108648,2
107.27557897567749,-736,87,-1936,108655,2
107.31554126739502,-741,45,-1954,108686,2
107.35555577278137,-741,80,-1931,108732,2
107.3956127166748,-749,64,-1932,108795,2
107.4345154762268,-751,40,-1960,108816,2
107.47455191612244,-768,64,-1942,108829,2
107.51457071304321,-786,56,-1942,108855,2
107.5545482635498,-730,63,-1948,108932,2
107.59454083442688,-780,75,-1936,108984,2
107.63455128669739,-772,67,-1937,109066,2
107.6745491027832,-715,61,-1967,109117,2
107.71472406387329,-765,67,-1941,109126,2
107.75454258918762,-786,87,-1925,108923,2
107.79453897476196,-735,95,-1937,108669,2
107.8345410823822,-758,76,-1938,108583,2
107.87454628944397,-721,74,-1938,108601,2
107.9149181842804,-783,64,-1960,108641,2
107.95354294776917,-749,75,-1941,108716,2
107.99353384971619,-793,60,-1937,108746,2
108.03352117538452,-776,56,-1960,108767,2
108.0735604763031,-760,74,-1924,108791,2
108.11373591423035,-761,83,-1950,108830,2
108.15353488922119,-734,88,-1937,108882,2
108.19354605674744,-768,68,-1934,108925,2
108.23357391357422,-753,65,-1946,108987,2
108.27354526519775,-752,90,-1915,109007,2
108.31386590003967,-792,74,-1941,108987,2
108.35357975959778,-736,65,-1943,108755,2
108.39357686042786,-735,71,-1947,108524,2
108.43353080749512,-761,82,-1926,108469,2
108.47354769706726,-805,56,-1955,108474,2
108.5125961303711,-749,48,-1939,108486,2
108.55281090736389,-774,53,-1956,108558,2
108.59253406524658,-783,62,-1931,108618,2
108.63257837295532,-737,68,-1947,108687,2
108.67254304885864,-770,57,-1950,108709,2
108.71267080307007,-742,68,-1931,108751,2
108.79582047462463,-759,63,-1955,108798,2
108.79692816734314,-761,86,-1930,108849,2
108.83253335952759,-746,77,-1933,108870,2
108.87258768081665,-706,54,-1964,108933,2
108.91264605522156,-750,84,-1927,108934,2
108.95257544517517,-781,50,-1959,108724,2
108.99257898330688,-727,62,-1947,108513,2
109.03154039382935,-812,78,-1938,108448,2
109.07156705856323,-791,77,-1936,108457,2
109.11152458190918,-722,60,-1966,108505,2
109.15157103538513,-774,71,-1934,108564,2
109.19156670570374,-708,94,-1938,108618,2
109.23181247711182,-752,80,-1928,108655,2
109.27158689498901,-788,91,-1952,108683,2
109.31162595748901,-711,89,-1924,108696,2
109.35165810585022,-705,81,-1961,108712,2
109.39153671264648,-817,72,-1955,108723,2
109.43168950080872,-743,90,-1916,108782,2
109.47154331207275,-801,65,-1940,108831,2
109.51155138015747,-737,51,-1985,108928,2
109.55155372619629,-805,87,-1941,109029,2
109.59057140350342,-742,125,-1885,108879,2
109.63067197799683,-718,66,-1963,108589,2
109.67054295539856,-731,41,-1967,108443,2
109.71053814888,-755,74,-1943,108441,2
109.75057315826416,-799,115,-1893,108422,2
109.79054522514343,-739,96,-1925,108441,2
109.83082032203674,-770,107,-1919,108426,2
109.87055087089539,-817,20,-1987,108424,2
109.91051149368286,-637,20,-1993,108382,2
109.95056629180908,-715,84,-1917,108389,2
109.99057936668396,-766,121,-1899,108380,2
110.0305814743042,-826,-2,-1962,108386,2
110.07053756713867,-759,23,-1986,108493,2
110.11062216758728,-758,59,-1953,108618,2
110.1495201587677,-704,80,-1912,108754,2
110.18972992897034,-721,148,-1873,108835,2
110.22957372665405,-860,32,-1970,108869,2
110.26956033706665,-758,47,-1955,108915,2
110.30953049659729,-727,85,-1935,108733,2
110.34952068328857,-719,69,-1933,108460,2
110.38950634002686,-809,19,-1982,108336,2
110.43028497695923,-817,126,-1902,108327,2
110.46951794624329,-720,26,-1982,108339,2
110.50956201553345,-590,95,-1961,108379,2
110.54951524734497,-856,81,-1900,108381,2
110.58958959579468,-779,63,-1920,108467,2
110.62952256202698,-761,66,-2006,108591,2
110.66853380203247,-803,103,-1883,108675,2
110.70853281021118,-650,11,-1996,108768,2
110.74854111671448,-670,74,-1964,108856,2
110.7886610031128,-774,92,-1917,108934,2
110.82864046096802,-814,92,-1923,109002,2
110.86857962608337,-730,60,-1972,109090,2
110.90851712226868,-725,63,-1938,109130,2
110.94853734970093,-761,59,-1959,109194,2
110.98851323127747,-710,68,-1952,109226,2
111.02853441238403,-697,31,-1974,109125,2
111.06853747367859,-708,42,-1932,108792,2
111.10856890678406,-727,49,-1971,108543,2
111.14853835105896,-754,53,-1937,108503,2
111.18856048583984,-706,42,-1964,108536,2
111.22754907608032,-683,41,-1973,108624,2
111.26754355430603,-696,36,-1956,108710,2
111.30755496025085,-712,40,-1976,108754,2
111.34765911102295,-714,61,-1931,108768,2
111.38753008842468,-747,37,-1970,108768,2
111.42756414413452,-686,40,-1974,108816,2
111.4675726890564,-694,30,-1960,108884,2
111.50752305984497,-714,39,-1958,108942,2
111.54761719703674,-707,25,-1981,108973,2
111.58757472038269,-678,22,-1978,109039,2
111.62753534317017,-709,50,-1943,109103,2
111.66754221916199,-733,23,-1951,109070,2
111.70755195617676,-735,37,-1973,108786,2
111.74668979644775,-670,42,-1976,108545,2
111.78692388534546,-713,38,-1987,108471,2
111.8265631198883,-685,63,-1935,108472,2
111.86657094955444,-697,26,-1998,108513,2
111.90653491020203,-718,84,-1926,108561,2
111.94667506217957,-711,13,-1974,108600,2
111.98656988143921,-652,29,-1992,108603,2
112.02655148506165,-730,53,-1938,108592,2
112.06655764579773,-708,62,-1966,108596,2
112.10657453536987,-679,-11,-2013,108633,2
112.14682865142822,-633,27,-1972,108687,2
112.18657803535461,-753,82,-1919,108767,2
112.22656750679016,-787,67,-1929,108856,2
112.26656889915466,-758,33,-1988,108775,2
112.30562734603882,-698,28,-1957,108512,2
112.34556317329407,-690,69,-1901,108383,2
112.38568806648254,-775,38,-1969,108345,2
112.4255473613739,-653,34,-1975,108382,2
112.46553754806519,-715,61,-1949,108439,2
112.50554418563843,-744,81,-1938,108478,2
112.54554510116577,-699,54,-1954,108489,2
112.58555865287781,-702,12,-2002,108467,2
112.62552809715271,-703,56,-1954,108446,2
112.66555404663086,-753,63,-1970,108508,2
112.70562100410461,-745,52,-1961,108541,2
