Timestamp,AccX,AccY,AccZ,Heart_IR,Phase
0.01973700523376465,-1919,317,903,104512,0
0.05921626091003418,-2714,562,489,104501,0
0.09924435615539551,-2109,1008,246,104585,0
0.13924407958984375,-2152,1288,58,104788,0
0.17923665046691895,-2216,1440,336,104972,0
0.21949028968811035,-2450,1604,435,105121,0
0.25926804542541504,-2308,1545,345,105224,0
0.29926180839538574,-2104,1325,215,105291,0
0.3392784595489502,-2447,1078,296,105273,0
0.37827086448669434,-2650,732,683,105117,0
0.4188511371612549,-2499,508,871,104774,0
0.458249568939209,-1699,320,615,104067,0
0.4982271194458008,-1076,333,326,103281,0
0.5383851528167725,-761,440,334,102779,0
0.5783624649047852,-684,492,558,102504,0
0.6854419708251953,-582,449,890,102164,0
0.6882848739624023,-532,197,919,101945,0
0.6980891227722168,-1444,27,519,101991,0
0.7381737232208252,-2066,58,689,101968,0
0.778109073638916,-2936,247,740,101903,0
0.81805419921875,-2752,494,531,101928,0
0.8581113815307617,-2763,664,479,102097,0
0.8971292972564697,-2683,686,283,102448,0
0.9373266696929932,-2400,691,264,102759,0
0.9770855903625488,-1831,716,298,103046,0
1.0170516967773438,-1384,754,295,103391,0
1.0570790767669678,-1653,775,237,103732,0
1.0972681045532227,-2278,712,63,104035,0
1.137646198272705,-2937,574,-366,104220,0
1.1774137020111084,-2872,396,-480,104262,0
1.2173268795013428,-2371,318,-533,104260,0
1.2571423053741455,-2191,304,-462,104328,0
1.2970685958862305,-2067,393,-326,104323,0
1.3371336460113525,-1946,409,-393,104011,0
1.3760769367218018,-1714,417,-462,103506,0
1.4161772727966309,-1688,448,-548,103153,0
1.4560892581939697,-1718,459,-574,103035,0
1.4960963726043701,-1758,458,-740,102996,0
1.5361049175262451,-1682,515,-618,102962,0
1.5762126445770264,-1558,545,-492,102992,0
1.6163661479949951,-1545,591,-397,102950,0
1.6563057899475098,-1562,728,-257,102883,0
1.6960666179656982,-1526,798,-378,102899,0
1.7361421585083008,-1562,863,-502,103032,0
1.776531457901001,-1663,918,-498,103180,0
1.8160476684570312,-1808,931,-586,103393,0
1.8578615188598633,-1952,954,-707,103593,0
1.8950796127319336,-2024,1016,-617,103741,0
1.9350450038909912,-2052,981,-656,103877,0
1.9750299453735352,-1973,973,-556,103981,0
2.0150747299194336,-1927,928,-476,104090,0
2.055331230163574,-1807,884,-510,104198,0
2.095133066177368,-1692,878,-532,104294,0
2.1350982189178467,-1755,909,-547,104359,0
2.1751046180725098,-1675,959,-496,104420,0
2.2151591777801514,-1615,968,-492,104450,0
2.255021572113037,-1576,995,-477,104269,0
2.2950501441955566,-1577,1034,-371,103760,0
2.33501935005188,-1530,1069,-307,103378,0
2.3750312328338623,-1491,1091,-348,103278,0
2.414053201675415,-1494,1126,-331,103270,0
2.4541308879852295,-1558,1150,-353,103290,0
2.4940428733825684,-1585,1160,-465,103375,0
2.5340728759765625,-1630,1181,-512,103425,0
2.574115514755249,-1644,1188,-514,103407,0
2.614027976989746,-1743,1146,-507,103373,0
2.6540396213531494,-1699,1120,-421,103326,0
2.694169521331787,-1487,1124,-389,103331,0
2.7340519428253174,-1419,1195,-274,103305,0
2.7740442752838135,-1440,1393,-123,103337,0
2.814058303833008,-1426,1536,1,103357,0
2.854029893875122,-1585,1661,285,103443,0
2.894179105758667,-1581,1790,540,103505,0
2.933042049407959,-1386,1654,647,103586,0
2.9730210304260254,-1489,1503,736,103612,0
3.0130372047424316,-1479,1473,1311,103506,0
3.0531091690063477,-1087,1330,689,103579,0
3.093022584915161,-845,1110,566,103809,0
3.1330478191375732,-1099,1038,1423,103912,0
3.1730167865753174,-1004,865,895,103973,0
3.213045120239258,-1795,590,1292,103699,0
3.253018379211426,-1110,590,1356,103133,0
3.294004201889038,-1341,304,1002,102698,0
3.3330986499786377,-2421,295,2090,102222,0
3.3730106353759766,-2053,345,1848,101874,0
3.4137513637542725,-2036,192,1259,101719,0
3.452148914337158,-1903,394,963,101789,0
3.4923884868621826,-1591,377,528,101944,0
3.532144069671631,-1891,374,579,101953,0
3.5720324516296387,-1415,568,495,102007,0
3.612046480178833,-1797,559,-77,102229,0
3.652035713195801,-1443,878,-235,102397,0
3.692286968231201,-1331,886,-885,102669,0
3.732128143310547,-1550,1066,-770,102823,0
3.7720911502838135,-1648,1180,-671,103058,0
3.812061071395874,-1650,1222,-843,103355,0
3.8520710468292236,-1713,1335,-818,103466,0
3.8922178745269775,-1755,1379,-910,103571,0
3.9312658309936523,-1656,1414,-998,103664,0
3.971078634262085,-1600,1441,-1112,103752,0
4.011093854904175,-1753,1501,-983,103810,0
4.051074028015137,-1729,1549,-706,103875,0
4.091044902801514,-1664,1514,-357,103953,0
4.1310951709747314,-1687,1467,128,103820,0
4.17105770111084,-1612,1445,207,103284,0
4.211015939712524,-1117,1204,-416,102775,0
4.251017808914185,-1610,1187,-194,102543,0
4.291474342346191,-2170,1342,370,102508,0
4.331064224243164,-2164,1281,168,102654,0
4.3709940910339355,-2337,1418,611,102945,0
4.411035060882568,-1312,1268,480,103147,0
4.449997186660767,-755,1003,477,103193,0
4.490073204040527,-1740,582,1554,103179,0
4.530004978179932,-1563,303,1111,103116,0
4.570004463195801,-1115,-37,821,103101,0
4.610030651092529,-1964,-188,1673,103013,0
4.650023460388184,-1871,-184,1046,102915,0
4.690028190612793,-1998,-247,863,102795,0
4.730078458786011,-2212,-25,1181,102658,0
4.769990921020508,-1415,117,566,102621,0
4.8100011348724365,-1896,185,659,102657,0
4.849999189376831,-1958,391,722,102682,0
4.890000820159912,-1731,556,643,102729,0
4.929021596908569,-2003,676,572,102797,0
4.969024181365967,-1801,691,262,102878,0
5.009029388427734,-1830,791,149,102990,0
5.049021005630493,-2236,728,-254,103072,0
5.089037656784058,-2032,807,-648,102850,0
5.129060983657837,-1870,952,-849,102417,0
5.169028043746948,-1966,994,-615,102117,0
5.20900559425354,-1635,1021,26,101940,0
5.249116659164429,-1612,1200,174,101827,0
5.289085865020752,-1883,1049,-502,101915,0
5.329664468765259,-1902,1020,-827,102058,0
5.36904764175415,-1907,1030,-642,102063,0
5.409083604812622,-1882,938,-623,102101,0
5.449036359786987,-1741,874,-450,102095,0
5.4880592823028564,-1958,865,-278,102139,0
5.528150796890259,-1842,804,-314,102198,0
5.56805944442749,-1647,680,-452,102302,0
5.60808801651001,-1791,686,-396,102364,0
5.648157119750977,-1906,690,-403,102407,0
5.688092947006226,-1856,647,-398,102460,0
5.7281575202941895,-1943,731,-273,102490,0
5.7681379318237305,-1936,780,-336,102533,0
5.808069944381714,-1818,764,-433,102574,0
5.84806489944458,-1888,731,-419,102620,0
5.888094186782837,-2003,799,-220,102690,0
5.928270578384399,-1937,759,-335,102784,0
5.968091726303101,-1937,710,-204,102850,0
6.007078647613525,-1777,700,-123,102906,0
6.047077655792236,-1845,672,-118,102795,0
6.0870749950408936,-2011,663,-217,102351,0
6.127072811126709,-1969,676,-169,101866,0
6.16705846786499,-1874,702,-99,101647,0
6.207067489624023,-1876,712,-72,101628,0
6.247019529342651,-1856,714,-44,101653,0
6.287038564682007,-1888,706,-47,101725,0
6.327035665512085,-1857,724,-80,101809,0
6.367081165313721,-1909,715,-90,101856,0
6.407059192657471,-1917,721,-61,101866,0
6.4471094608306885,-1907,721,-73,101951,0
6.487084865570068,-1871,710,-97,102076,0
6.5260844230651855,-1883,706,-89,102211,0
6.56603217124939,-1873,706,-113,102346,0
6.606072664260864,-1904,697,-126,102431,0
6.646051645278931,-1914,698,-140,102538,0
6.686030864715576,-1934,703,-162,102615,0
6.726014852523804,-1946,712,-115,102692,0
6.766019105911255,-1914,700,-138,102747,0
6.806092977523804,-1901,711,-114,102797,0
6.846099853515625,-1921,697,-184,102826,0
6.886072874069214,-1907,723,-155,102857,0
6.92604660987854,-1899,781,-181,102921,0
6.9661524295806885,-1836,718,-96,102958,0
7.0060741901397705,-1781,693,-242,102898,0
7.045078277587891,-1957,669,-444,102574,0
7.085103988647461,-2072,684,-474,102216,0
7.12505578994751,-2027,712,-463,102070,0
7.165038585662842,-1892,731,-396,102063,0
7.205108404159546,-1787,725,-306,102050,0
7.245152711868286,-1662,699,-234,102081,0
7.285094738006592,-1699,670,-228,102156,0
7.325050354003906,-1748,660,-171,102127,0
7.365492105484009,-1704,653,-224,102078,0
7.405072450637817,-1808,625,-234,102067,0
7.445113897323608,-1759,618,-90,102088,0
7.485041856765747,-2263,583,-211,102136,0
7.525086164474487,-2216,590,-192,102187,0
7.5651161670684814,-2239,628,-161,102246,0
7.604095697402954,-2177,646,-118,102279,0
7.64406681060791,-1948,673,-50,102315,0
7.684062719345093,-1958,656,-93,102382,0
7.724041938781738,-2038,622,-81,102460,0
7.7649986743927,-1978,598,-78,102511,0
7.804082155227661,-1895,581,-85,102543,0
7.84411358833313,-1822,600,-89,102589,0
7.884429693222046,-1795,612,-150,102650,0
7.924007892608643,-1850,632,-181,102718,0
7.964040279388428,-1897,648,-202,102742,0
8.004103183746338,-1993,664,-208,102755,0
8.044091939926147,-1993,659,-217,102461,0
8.084133386611938,-1972,674,-183,102096,0
8.124072313308716,-1952,681,-172,101865,0
8.163605690002441,-1963,663,-205,101843,0
8.203091144561768,-1918,645,-184,101853,0
8.243109703063965,-1976,617,-96,101900,0
8.283154726028442,-1910,614,-93,101973,0
8.32303500175476,-1876,613,-66,101995,0
8.363132953643799,-1887,612,-75,101985,0
8.403097867965698,-1902,630,-108,102026,0
8.44312071800232,-1836,649,-123,102050,0
8.483094215393066,-1878,663,-123,102134,0
8.523067951202393,-1915,687,-145,102173,0
8.56308650970459,-1880,711,-166,102270,0
8.603102207183838,-1924,721,-164,102313,0
8.643121480941772,-2016,755,-161,102387,0
8.683115243911743,-2066,771,-266,102470,0
8.722079753875732,-2000,782,-225,102554,0
8.762053728103638,-1891,770,-150,102641,0
8.802268028259277,-1815,748,-146,102708,0
8.842125415802002,-1773,737,-114,102784,0
8.88208532333374,-1809,720,-136,102864,0
8.922110795974731,-1818,712,-132,102935,0
8.962083578109741,-1815,726,-130,103003,0
9.002183437347412,-1849,742,-154,102956,0
9.042073726654053,-1918,759,-182,102635,0
9.082111597061157,-1847,775,-209,102246,0
9.122103452682495,-1902,778,-192,102112,0
9.162051439285278,-1908,793,-194,102084,0
9.2023446559906,-1864,791,-193,102128,0
9.242064476013184,-1810,789,-189,102239,0
9.28107213973999,-1867,795,-187,102289,0
9.321084260940552,-1853,761,-227,102310,0
9.361084222793579,-1907,788,-234,102304,0
9.401378154754639,-1841,781,-220,102351,0
9.441182136535645,-1866,779,-215,102451,0
9.481128454208374,-1882,789,-216,102557,0
9.521097898483276,-1843,772,-248,102655,0
9.561105728149414,-1863,769,-226,102723,0
9.62471055984497,-1900,768,-252,102777,0
9.64903712272644,-1883,761,-235,102806,0
9.681113719940186,-1877,765,-247,102864,0
9.721059322357178,-1852,761,-229,102904,0
9.761119365692139,-1893,743,-233,102989,0
9.801085472106934,-1856,755,-240,103068,0
9.840099573135376,-1842,754,-229,103121,0
9.880092859268188,-1879,756,-213,103200,0
9.920160293579102,-1864,777,-199,103238,0
9.960081815719604,-1873,782,-204,103068,0
10.000644207000732,-1890,774,-231,102667,0
10.040035963058472,-1893,770,-260,102331,0
10.080092906951904,-1843,756,-257,102211,0
10.12006163597107,-1843,752,-230,102205,0
10.160097122192383,-1908,734,-265,102235,0
10.200298547744751,-1855,749,-259,102281,0
10.24006462097168,-1825,750,-242,102311,0
10.280077457427979,-1921,750,-240,102284,0
10.320066690444946,-1914,770,-228,102283,0
10.360098600387573,-1890,776,-229,102344,0
10.399112701416016,-1878,761,-221,102411,0
10.439079523086548,-1914,761,-222,102504,0
10.479713678359985,-1879,752,-248,102595,0
10.519182443618774,-1829,738,-276,102696,0
10.55907940864563,-1891,746,-258,102767,0
10.599118709564209,-1866,751,-269,102845,0
10.639161586761475,-1847,752,-256,102921,0
10.679090738296509,-1832,750,-254,102972,0
10.719194173812866,-1912,758,-233,103025,0
10.759320974349976,-1895,759,-248,103049,0
10.79908013343811,-1868,757,-221,103099,0
10.839450359344482,-1890,746,-216,103129,0
10.879119873046875,-1839,749,-219,103161,0
10.919135808944702,-1801,735,-313,103074,0
10.958075284957886,-1929,755,-280,102692,0
10.998072624206543,-1939,781,-215,102278,0
11.038414478302002,-1961,776,-228,102079,0
11.078655004501343,-1886,787,-180,102083,0
11.118110656738281,-1878,780,-180,102161,0
11.158115863800049,-1844,781,-224,102271,0
11.198086738586426,-1866,773,-276,102351,0
11.239189624786377,-1898,768,-277,102338,0
11.278092861175537,-1880,756,-293,102318,0
11.318088293075562,-1892,743,-267,102301,0
11.35808539390564,-1829,742,-249,102303,0
11.398078918457031,-1800,761,-204,102307,0
11.438111066818237,-1815,767,-195,102328,0
11.478094339370728,-1850,775,-183,102380,0
11.518110752105713,-1856,787,-188,102373,0
11.557103633880615,-1871,828,-97,102330,0
11.597088813781738,-1890,801,-245,102318,0
11.637107849121094,-1848,795,-293,102342,0
11.677084684371948,-1840,798,-290,102395,0
11.71712851524353,-1903,803,-247,102419,0
11.757075548171997,-1928,792,-262,102479,0
11.797103643417358,-1924,784,-165,102440,0
11.83713150024414,-1849,763,-224,102399,0
11.877232074737549,-1807,747,-260,102137,0
11.917206287384033,-1807,764,-201,101560,0
11.9570951461792,-1830,756,-260,101093,0
11.997097730636597,-1848,770,-270,100962,0
12.037095785140991,-1891,784,-233,101073,0
12.077130317687988,-1898,792,-261,101236,0
12.116698026657104,-1834,802,-232,101425,0
12.156096935272217,-1863,809,-238,101504,0
12.196917295455933,-1921,805,-242,101507,0
12.236092805862427,-1894,802,-251,101528,0
12.27611255645752,-1849,797,-281,101621,0
12.316088914871216,-1873,800,-262,101756,0
12.356102466583252,-1890,793,-251,101871,0
12.396100282669067,-1825,790,-264,101965,0
12.436150789260864,-1796,796,-250,102054,0
12.476176500320435,-1798,812,-280,102142,0
12.516343593597412,-1862,817,-342,102268,0
12.556095361709595,-1947,834,-316,102366,0
12.596091270446777,-1943,826,-307,102513,0
12.636111974716187,-1825,826,-300,102682,0
12.676450252532959,-1841,824,-276,102846,0
12.715322494506836,-1824,836,-251,102999,0
12.755084753036499,-1811,820,-245,103121,0
12.795149326324463,-1796,831,-166,103186,0
12.835165977478027,-1827,833,-155,102975,0
12.875720739364624,-1887,782,-309,102505,0
12.91518783569336,-1846,782,-273,102148,0
12.95509123802185,-1803,795,-202,102014,0
12.995145082473755,-1770,810,-222,101995,0
13.035141706466675,-1849,810,-208,102023,0
13.075350761413574,-1882,823,-175,102068,0
13.11518907546997,-1862,821,-223,102064,0
13.155184268951416,-1886,810,-261,102041,0
13.195229768753052,-1867,807,-255,102074,0
13.235143423080444,-1807,798,-250,102152,0
13.274547576904297,-1819,808,-219,102254,0
13.314401865005493,-1858,829,-198,102364,0
13.354191541671753,-1861,834,-213,102440,0
13.39425277709961,-1849,847,-228,102518,0
13.434204578399658,-1865,834,-261,102600,0
13.474352359771729,-1842,843,-281,102678,0
13.514171838760376,-1813,837,-319,102759,0
13.554137229919434,-1788,837,-328,102829,0
13.594138145446777,-1843,842,-344,102884,0
13.634280443191528,-1854,843,-336,102939,0
13.67441725730896,-1852,853,-330,103003,0
13.714196681976318,-1871,840,-304,103063,0
13.75416874885559,-1818,855,-290,103086,0
13.794198513031006,-1836,844,-294,102798,0
13.833174467086792,-1845,839,-309,102284,0
13.873188972473145,-1880,820,-314,101947,0
13.913193225860596,-1852,812,-312,101873,0
13.953160285949707,-1838,820,-292,101925,0
13.99315071105957,-1813,811,-252,102032,0
14.033164739608765,-1812,810,-253,102139,0
14.073178768157959,-1856,819,-266,102164,0
14.113242149353027,-1875,817,-262,102132,0
14.153223514556885,-1852,809,-278,102165,0
14.193187236785889,-1825,813,-262,102205,0
14.233263969421387,-1829,809,-247,102290,0
14.273181200027466,-1832,821,-252,102350,0
14.31327748298645,-1850,819,-270,102407,0
14.353185176849365,-1857,801,-268,102492,0
14.39219045639038,-1831,814,-264,102557,0
14.432345390319824,-1827,809,-273,102619,0
14.472149848937988,-1844,799,-278,102687,0
14.512217044830322,-1875,800,-286,102745,0
14.552236080169678,-1852,800,-312,102823,0
14.592154026031494,-1830,793,-302,102886,0
14.632201194763184,-1861,792,-312,102989,0
14.672154903411865,-1870,791,-293,103029,0
14.712688684463501,-1838,790,-308,102883,0
14.752277374267578,-1878,794,-335,102376,0
14.792206287384033,-1884,795,-333,101840,0
14.832178354263306,-1849,794,-321,101644,0
14.872189044952393,-1839,801,-317,101666,0
14.912358045578003,-1893,801,-296,101780,0
14.952224969863892,-1826,796,-299,101930,0
14.991199016571045,-1816,794,-315,102030,0
15.031188011169434,-1833,780,-318,102027,1
15.071166515350342,-1814,801,-353,102040,1
15.11129879951477,-1810,804,-359,102122,1
15.151166677474976,-1932,813,-333,102257,1
15.191307783126831,-1935,795,-324,102366,1
15.23120903968811,-1924,792,-264,102414,1
15.271239995956421,-1949,741,-239,102422,1
15.31124234199524,-1780,700,-158,102365,1
15.35118842124939,-1531,749,-263,102352,1
15.391191959381104,-1621,827,-333,102455,1
15.431288719177246,-1891,835,-311,102561,1
15.471287727355957,-2224,775,-411,102652,1
15.511252880096436,-2221,727,-330,102702,1
15.551866054534912,-1953,692,-252,102688,1
15.590265989303589,-1737,680,-165,102648,1
15.6301748752594,-1681,717,-184,102622,1
15.670189142227173,-1965,718,-386,102394,1
15.710188627243042,-2325,743,-467,101860,1
15.750142574310303,-2259,792,-360,101512,1
15.790231227874756,-2160,685,-586,101653,1
15.8302321434021,-2166,664,-649,101987,1
15.870206117630005,-1820,1023,280,102425,1
15.91013240814209,-1055,1228,-347,103050,1
15.950238466262817,-1098,3175,-338,103724,1
15.990190267562866,-2053,8242,1022,105180,1
16.030191898345947,-1489,6839,1386,106135,1
16.07020401954651,3758,8884,3258,106220,1
16.111479997634888,5287,-3857,-6821,104936,1
16.14923858642578,-6214,-15801,14546,103045,1
16.18932294845581,-3154,-3880,6133,102434,1
16.22920298576355,4962,-2170,-5164,103217,1
16.269184112548828,2250,-381,1184,103395,1
16.30919051170349,-719,-876,1780,103785,1
16.34921169281006,-892,-164,2559,103958,1
16.389190196990967,295,-241,1750,104233,1
16.429133653640747,-147,-86,1807,104374,1
16.469180822372437,-109,-46,2642,104497,1
16.509177684783936,-492,-103,1793,104619,1
16.549569368362427,-435,-45,2051,104641,1
16.58911395072937,-451,-32,1582,104617,1
16.62917733192444,-721,28,1968,104079,1
16.669111251831055,-189,47,1908,103527,1
16.708138942718506,-25,21,2106,103107,1
16.74875521659851,-302,63,1893,102905,1
16.78817057609558,-335,132,2369,102802,1
16.828877210617065,-267,-36,1742,102856,1
16.868186473846436,-157,-59,1821,102866,1
16.90816855430603,-274,64,2250,102767,1
16.9483802318573,-155,-14,1870,102852,1
16.988184928894043,-186,71,1978,103052,1
17.028173208236694,-237,79,2188,103296,1
17.068148374557495,-5,17,1881,103465,1
17.108163356781006,-12,26,1985,103561,1
17.148176193237305,133,-41,1802,103770,1
17.18810772895813,-24,45,2237,103952,1
17.228656768798828,149,-43,1980,104132,1
17.26820421218872,-327,-54,2227,104199,1
17.307143211364746,-153,-92,1930,104330,1
17.34718894958496,178,-106,1790,104422,1
17.38719940185547,-163,-114,2043,104401,1
17.42713236808777,-59,-85,2098,104163,1
17.467159032821655,-176,-220,1846,103741,1
17.507164001464844,-610,-193,2053,103456,1
17.547175407409668,-278,-174,1923,103325,1
17.587247371673584,-325,-213,1814,103330,1
17.627140045166016,-776,-191,2296,103428,1
17.66718578338623,-815,-308,2372,103419,1
17.70717167854309,-1007,-623,2209,103290,1
17.74716329574585,-1244,-1151,2131,103036,1
17.787280797958374,-1493,-1517,2087,102712,1
17.827253341674805,-1565,-1682,495,102618,1
17.86719584465027,-1753,-1601,976,102520,1
17.90621781349182,-1232,-283,370,102508,1
17.946129083633423,-682,-173,160,102690,1
17.98621439933777,-1269,1037,1255,102805,1
18.02623176574707,-1028,1292,-130,103167,1
18.06618881225586,-2327,1851,146,103530,1
18.106157779693604,-2794,2867,576,104162,1
18.146222829818726,-3737,5059,-1218,105148,1
18.187358617782593,-4068,8094,396,105703,1
18.226216077804565,-3755,6970,-1017,106040,1
18.266226530075073,-718,6216,-997,106378,1
18.306244373321533,4181,4512,-588,106837,1
18.34617829322815,5620,-12510,-2647,104630,1
18.386764526367188,-4988,-16471,4681,102209,1
18.42619228363037,-808,-8619,1868,100923,1
18.4662127494812,2580,-5135,1342,100551,1
18.5052387714386,-526,1517,2083,100832,1
18.545188903808594,-584,6044,3973,101294,1
18.585438013076782,-8884,9610,4411,77836,1
18.625285625457764,-10612,6094,8870,98979,1
18.66523241996765,-1249,133,-4601,105446,1
18.705149173736572,-663,-1780,515,104463,1
18.745309114456177,8568,-10452,1296,105311,1
18.785192489624023,-342,-11303,4895,102284,1
18.82535147666931,384,-8021,5547,100278,1
18.86518096923828,3470,-6335,-1377,100445,1
18.90518021583557,-2678,490,5330,100686,1
18.945143222808838,-295,4916,-85,102403,1
18.985164165496826,-5050,8497,3990,75852,1
19.025195837020874,-6818,9512,7999,90981,1
19.064208507537842,-1058,2964,-4022,101379,1
19.104203701019287,2917,2362,-1054,103462,1
19.144323587417603,2528,-3387,821,104699,1
19.184202432632446,4266,-11646,2266,102465,1
19.22423529624939,-6410,-6579,6093,102154,1
19.26416301727295,468,-5423,484,102190,1
19.355719566345215,685,-4153,3175,101862,1
19.356863021850586,-849,350,529,101368,1
19.38422656059265,-1971,4359,3545,100518,1
19.42427110671997,-2468,8035,4204,105392,1
19.46423602104187,-2118,7892,2498,106005,1
19.50421953201294,-521,5754,2633,108970,1
19.54427742958069,3719,3448,-1533,110432,1
19.584198713302612,3949,-3531,846,109177,1
19.624311208724976,-3610,-10304,-1398,112380,1
19.663293600082397,-1663,-7550,2411,108760,1
19.70323944091797,-1810,-6407,2671,108189,1
19.7432119846344,1428,-2804,257,105748,1
19.78321146965027,-1423,249,2755,116017,1
19.823241472244263,-2382,4102,1297,104485,1
19.863203763961792,-2107,7131,2866,17374,1
19.90321373939514,-4185,8136,8531,44164,1
19.943239450454712,-3644,4062,-295,97328,1
19.983147859573364,902,1980,500,94294,1
20.023905515670776,1260,-574,673,103835,1
20.0631902217865,3386,-7333,-757,105120,1
20.103198289871216,-388,-8117,5403,107208,1
20.14318585395813,-367,-6099,899,107922,1
20.18318247795105,2509,-3945,625,105239,1
20.223896980285645,-411,-558,1353,106622,1
20.2621967792511,-970,3264,742,106290,1
20.30224323272705,-3908,7082,7345,112888,1
20.342221975326538,-4039,7505,4135,114737,1
20.382213830947876,-1549,4972,3172,115522,1
20.42219638824463,40,2202,1889,116035,1
20.462175846099854,1304,-2008,-62,116377,1
20.502190113067627,622,-7840,2971,116853,1
20.542215824127197,-2507,-6447,4746,115824,1
20.58220887184143,1045,-6755,1369,113410,1
20.622174501419067,745,-4964,844,113263,1
20.66217041015625,104,171,227,113576,1
20.702226638793945,-1215,6101,2863,113771,1
20.742204427719116,-2335,10331,1285,113927,1
20.782197952270508,-3639,10077,3978,114510,1
20.82119917869568,-2726,4951,1483,114328,1
20.86121153831482,3804,3405,-3118,114349,1
20.90121841430664,3130,-3602,2914,115358,1
20.941235542297363,-504,-16375,-906,112555,1
20.98122239112854,-3165,-6007,10371,110671,1
21.02122187614441,3132,-7535,-1726,110393,1
21.061234951019287,-456,-2299,1174,110137,1
21.101234674453735,-783,2701,1653,110484,1
21.14122486114502,-2190,6807,2358,110319,1
21.18120312690735,-4739,11413,6986,110392,1
21.221186637878418,-6100,5078,-37,112013,1
21.26120662689209,1408,3245,-1866,112621,1
21.301225900650024,2467,-405,-1513,112911,1
21.34121608734131,3620,-7172,1658,112241,1
21.380221843719482,-3415,-11032,3859,111092,1
21.420217037200928,-1052,-5272,5223,110502,1
21.4602153301239,-405,-5097,2239,111364,1
21.500178337097168,279,-923,45,111976,1
21.54031467437744,-1232,5035,3104,111915,1
21.58022427558899,-81,8040,4172,110968,1
21.620208978652954,-2496,9621,1831,107864,1
21.661092042922974,-42,6436,3118,111836,1
21.700190782546997,4218,699,-2983,112443,1
21.74019169807434,2731,-8721,1072,113121,1
21.78022289276123,-5437,-10572,6642,111685,1
21.820208311080933,-1635,-6376,4690,111365,1
21.8602511882782,1088,-7176,728,112008,1
21.900208473205566,2302,-938,-313,112028,1
21.93920397758484,1136,5231,3868,113245,1
21.979198932647705,-2705,8358,1517,113497,1
22.019177675247192,-3579,12056,973,113644,1
22.06027913093567,-2800,5729,-542,113689,1
22.099211931228638,5894,3584,-5499,113703,1
22.139202117919922,2665,-3014,3121,114304,1
22.17920756340027,-680,-11860,864,112081,1
22.219229698181152,-6934,-8176,12526,110593,1
22.259490251541138,1615,-9426,-940,110240,1
22.29923963546753,3044,-3639,61,110281,1
22.339208126068115,-755,3152,2061,111333,1
22.37919521331787,1817,6907,2611,111961,1
22.419238805770874,-4941,11220,6715,112494,1
22.45952320098877,-5353,8343,1876,111374,1
22.498228549957275,-210,3404,-726,111815,1
22.53823685646057,4693,-2687,-2033,113047,1
22.578212022781372,-1614,-9345,4821,112172,1
22.618242740631104,-4990,-9247,9114,110441,1
22.658204555511475,-359,-8054,3663,108988,1
22.698235034942627,1521,-5209,1529,108720,1
22.738226413726807,838,-140,658,109172,1
22.778297662734985,-1275,4672,3177,110303,1
22.818220376968384,-3324,7375,-2020,111129,1
22.858195066452026,-6725,12075,-5,111930,1
22.898273229599,-2944,5306,-2180,112000,1
22.938230991363525,1465,4764,-3582,111977,1
22.9784517288208,2479,1398,-871,112745,1
23.018251657485962,4269,-11070,-1333,112429,1
23.057323932647705,-6978,-10440,9329,110690,1
23.097274780273438,-2198,-8220,4163,110200,1
23.137258768081665,-315,-6539,248,109547,1
23.177247285842896,781,-659,1808,109234,1
23.217204332351685,798,5285,2170,110301,1
23.257232666015625,-5539,12032,3119,111162,1
23.29725933074951,-3894,8721,4447,111356,1
23.337207078933716,-4737,6484,5600,111818,1
23.377302408218384,-2548,1550,-3686,111520,1
23.41726517677307,5152,-751,-2914,111917,1
23.457241773605347,2378,-9539,2064,109530,1
23.497739553451538,-2296,-12728,6303,108367,1
23.537285327911377,-1366,-8642,6149,107232,1
23.57732915878296,1633,-5662,-1029,106873,1
23.61624050140381,-937,282,3806,107747,1
23.656222581863403,2672,5052,955,108841,1
23.69638180732727,-4827,8123,4126,109535,1
23.73624300956726,-7527,11735,2427,109979,1
23.77624821662903,-3093,4125,-634,110393,1
23.81624150276184,1668,3954,-718,111055,1
23.856226682662964,2618,1210,-341,111173,1
23.896353483200073,6275,-9412,-429,111679,1
23.936319828033447,-8323,-12326,8440,108825,1
23.976269245147705,-2003,-8057,2566,107788,1
24.016708374023438,787,-5454,1761,108228,1
24.05627942085266,-281,-151,1703,109267,1
24.09628701210022,1344,3868,3251,109519,1
24.136258125305176,-3046,7099,7228,110687,1
24.17526888847351,-5322,9944,-1443,110189,1
24.21523404121399,-4064,6368,633,111716,1
24.255221366882324,1061,4722,-3322,112435,1
24.29535937309265,2426,1802,-4024,112983,1
24.3352530002594,3061,-5601,2073,112508,1
24.37522554397583,41,-12401,3560,109883,1
24.415252208709717,-5131,-5462,10665,110395,1
24.45528769493103,-1267,-8641,1257,111432,1
24.495429039001465,2860,-4779,-1632,111007,1
24.53523087501526,-937,309,1638,111749,1
24.57527184486389,3546,4498,2040,110562,1
24.615214586257935,204,6574,10374,108755,1
24.65524387359619,-4839,10069,5518,111686,1
24.695225954055786,545,3276,-2858,110428,1
24.734253644943237,5216,4714,578,110723,1
24.77447533607483,2640,2230,-1653,110721,1
24.81426739692688,2569,-2662,-89,110011,1
24.85420846939087,1174,-9920,1396,109840,1
24.894275903701782,-3722,-7149,5398,109383,1
24.9342622756958,-3277,-3566,9298,108940,1
24.974294424057007,120,-7678,-1989,109563,1
25.014482975006104,108,-2542,1709,108944,1
25.054267406463623,1346,2439,1139,109443,1
25.094369173049927,1608,5380,1240,109346,1
25.1345534324646,-2077,11532,6109,108937,1
25.174286603927612,-4208,6600,4416,108877,1
25.214241981506348,363,5086,3969,109078,1
25.254236698150635,2391,1259,-1159,108839,1
25.29428243637085,2938,-4489,-2938,109545,1
25.333309173583984,-1704,-11206,7926,107288,1
25.37326216697693,-6820,-5313,6958,106292,1
25.413304567337036,-858,-7283,3069,105900,1
25.45325994491577,1759,-4734,-410,105953,1
25.49323797225952,1874,-262,202,106319,1
25.533408164978027,3714,6331,2542,107171,1
25.573280811309814,540,7326,1517,105222,1
25.613720893859863,-2441,8538,6603,94766,1
25.653218507766724,438,5712,3863,101120,1
25.693256855010986,4751,3083,-4377,102402,1
25.733476400375366,1802,-2187,-1241,103691,1
25.773282051086426,484,-10123,-102,104009,1
25.813257932662964,-5411,-10736,4724,102362,1
25.853277444839478,-3291,-2589,7044,102760,1
25.89226484298706,545,-8776,-1219,102946,1
25.932418823242188,877,-5083,593,102832,1
25.9722261428833,2609,-69,533,103208,1
26.01227378845215,2609,3768,2989,103382,1
26.052501916885376,1253,6904,4149,104212,1
26.092244625091553,-2887,8041,4082,102621,1
26.13256573677063,-2067,7231,9264,104145,1
26.172237634658813,186,3050,-2648,105866,1
26.21225357055664,4358,226,-2557,104996,1
26.252293825149536,263,-10039,3228,105045,1
26.292291402816772,-6236,-10838,2241,104990,1
26.332258224487305,-2821,-3843,8523,104461,1
26.372305870056152,-228,-7886,-1948,104788,1
26.413158416748047,2243,-2689,-1313,104738,1
26.451250553131104,1936,1227,2074,105541,1
26.491278648376465,2491,3745,766,103378,1
26.5312397480011,3197,7374,8676,102673,1
26.571454763412476,-2309,6761,4802,104737,1
26.611210823059082,86,4279,3848,104898,1
26.651243448257446,2948,2181,759,107082,1
26.691287994384766,3537,-1125,-2239,107849,1
26.731273651123047,-266,-8087,4038,106457,1
26.771259307861328,-4866,-7739,3744,105692,1
26.81128430366516,-3040,-4219,4918,105281,1
26.851279497146606,527,-6214,2785,105417,1
26.891351222991943,1218,-2676,-585,105654,1
26.93127131462097,435,1854,1284,105879,1
26.97150468826294,3833,6618,1574,106472,1
27.01039958000183,212,7670,2978,103838,1
27.050289392471313,472,8076,7147,103785,1
27.09125781059265,-149,4713,1655,106201,1
27.130250930786133,2276,495,-2853,106777,1
27.170336723327637,2942,-4062,-851,106419,1
27.21031403541565,-1694,-9572,3551,105041,1
27.25106716156006,-4050,-3210,7485,104480,1
27.29026436805725,399,-4736,3228,104187,1
27.33025860786438,436,-4168,1172,104103,1
27.370480060577393,524,-789,184,104468,1
27.410242557525635,294,2219,1017,104932,1
27.45072913169861,1345,6820,2896,105378,1
27.49028182029724,-1607,9304,2537,105814,1
27.529385089874268,-513,6444,4936,106538,1
27.56944465637207,983,2333,-968,106868,1
27.609258890151978,5873,197,-3810,107560,1
27.64932346343994,120,-5645,3757,108308,1
27.68928050994873,-2717,-9473,3692,106177,1
27.729313850402832,-5045,-1948,10822,105052,1
27.769514322280884,-102,-8135,758,104642,1
27.809252738952637,2410,-4573,-58,104350,1
27.8500657081604,1509,43,563,104474,1
27.88928747177124,3608,3439,-2149,105158,1
27.930250883102417,940,7294,2334,105604,1
27.969289541244507,-1990,10014,-2104,105775,1
28.00948977470398,-344,7419,-166,106336,1
28.049299955368042,3871,2634,-2927,107359,1
28.088406562805176,857,-4255,-667,106936,1
28.128289699554443,981,-7426,6803,105145,1
28.168713569641113,-6669,-4343,6198,104288,1
28.208328008651733,-1058,-4803,7649,103707,1
28.248496294021606,1317,-6257,485,103800,1
28.288275718688965,1222,-2765,-130,103945,1
28.328262329101562,1652,1464,64,104330,1
28.368261575698853,2557,6741,-1533,100331,1
28.408292770385742,1221,10020,5125,91679,1
28.44826078414917,-229,7499,6326,99558,1
28.489235639572144,828,3024,109,103375,1
28.528252840042114,4975,-777,-1868,106044,1
28.568426609039307,-1179,-7358,-3021,105492,1
28.607885122299194,-2139,-9652,8767,104759,1
28.647284746170044,-3905,-1919,6607,104654,1
28.687865734100342,-334,-5289,2737,104641,1
28.72729992866516,891,-5640,713,105021,1
28.767279386520386,1788,-1894,-574,105133,1
28.80728030204773,550,1306,2858,105369,1
28.847267866134644,2448,4139,1884,106022,1
28.887293338775635,-2259,6728,1753,106212,1
28.92728567123413,-5017,10888,2651,106324,1
28.967536211013794,-3973,5340,1284,106428,1
29.00754404067993,-669,3247,-926,106576,1
29.04731059074402,1616,-571,-696,106865,1
29.087663173675537,2402,-6988,-297,106091,1
29.12731122970581,-2138,-10505,5240,104378,1
29.166527271270752,-1459,-1806,7810,104043,1
29.206278800964355,47,-5860,2224,103857,1
29.24628710746765,1187,-4031,-575,103676,1
29.31626558303833,333,-412,70,104148,1
29.333251953125,-84,4578,-400,101772,1
29.367002487182617,2857,7222,4911,90620,1
29.406851053237915,2140,8679,7493,98432,1
29.446268558502197,371,4139,1701,105121,1
29.48649024963379,3081,-75,-1043,106003,1
29.526811122894287,3867,-5488,-2971,106295,1
29.566314220428467,-2024,-9589,7353,105051,1
29.60698175430298,-2681,-1590,7916,105370,1
29.646291494369507,-2854,-6574,3304,106225,1
29.686368465423584,1211,-6451,1006,106341,1
29.725350856781006,1292,-1906,153,106062,1
29.76527166366577,1595,1837,1354,106367,1
29.805426836013794,-572,3792,459,106452,1
29.845778465270996,-862,7104,3697,106344,1
29.885478019714355,-2316,10084,367,106077,1
29.925346612930298,-3239,5742,1051,105364,1
29.96529769897461,-828,4733,501,105915,1
30.005288124084473,180,1610,-2262,106463,1
30.04623508453369,2090,-339,1339,107064,1
30.086015939712524,3325,-7385,1690,106781,1
30.126600980758667,-5908,-10093,3166,104924,1
30.166165828704834,-1451,-4081,6810,104667,1
30.205262660980225,-417,-6572,364,104501,1
30.245282411575317,1306,-2987,1248,104402,1
30.284286499023438,3038,1103,1561,105014,1
30.32477617263794,473,1530,1933,105592,1
30.36428952217102,-3479,6830,3294,106287,1
30.404810428619385,-4301,7142,2815,106185,1
30.444483995437622,-5308,4865,7739,105948,1
30.484320163726807,-806,3971,3482,107970,1
30.52430534362793,-1828,974,-703,108876,1
30.564337968826294,2733,555,-4082,109331,1
30.60472583770752,489,-2277,738,108700,1
30.644307613372803,662,-7670,3337,106602,1
30.68432927131653,-4569,-6334,5116,105562,1
30.724343061447144,-2672,-5376,5242,105705,1
30.76505732536316,2244,-5176,-774,105558,1
30.8032968044281,1350,-1574,582,105287,1
30.8433039188385,1283,1006,1105,105465,1
30.883339643478394,1091,2719,3043,103352,1
30.92445468902588,2069,6868,3257,104674,1
30.964100122451782,-3293,6776,1763,105420,1
31.003511667251587,-4116,4365,2972,102733,1
31.044493913650513,-310,3974,3346,100986,1
31.083275079727173,130,2817,2523,103664,1
31.123754024505615,1818,267,-572,105920,1
31.163537979125977,617,-7018,-2018,103997,1
31.20328664779663,-860,-9420,6688,101330,1
31.243813514709473,-3258,-2299,8168,102757,1
31.283673763275146,926,-8278,348,103429,1
31.324115991592407,3015,-4221,-350,102779,1
31.36267066001892,1495,-314,387,102423,1
31.403143167495728,2504,2526,1198,100765,1
31.44269108772278,1405,6654,4969,98545,1
31.482322216033936,-524,11156,2731,104497,1
31.52234959602356,-4469,2968,-2120,104803,1
31.56229043006897,94,4100,714,100141,1
31.60282301902771,1787,3325,913,102490,1
31.642357349395752,1492,-1061,-1296,103632,1
31.68315052986145,1336,-7270,970,101794,1
31.722332000732422,-3562,-7528,5449,100417,1
31.762499570846558,-2594,-1946,5879,100181,1
31.802560567855835,537,-4879,1731,101907,1
31.842298984527588,792,-3654,285,101998,1
31.88133144378662,1725,-1361,719,101806,1
31.921300172805786,1016,280,-226,101208,1
31.961474180221558,1230,1770,1673,99728,1
32.00127339363098,673,3900,3137,102653,1
32.04131293296814,-2208,7056,1763,105518,1
32.08131146430969,-4073,4818,1704,104994,1
32.121541023254395,-1599,3961,3161,104834,1
32.16148138046265,305,2933,982,105019,1
32.201473236083984,1871,1731,-311,106066,1
32.24158835411072,2019,357,1692,106108,1
32.281745195388794,484,-3897,509,105550,1
32.32177138328552,1088,-6932,3313,104448,1
32.36150097846985,-2006,-1682,5400,105058,1
32.40149211883545,-1424,-1941,1871,105531,1
32.440288066864014,89,-2804,1680,105672,1
32.48049521446228,279,-2578,1222,105668,1
32.52046728134155,609,-1237,369,105602,1
32.560462951660156,841,54,878,105714,1
32.601057052612305,934,941,648,106235,1
32.64070391654968,-500,3100,1903,106824,1
32.680492639541626,-3855,4223,2023,106848,1
32.72050213813782,-6458,4594,2287,106216,1
32.76056981086731,-5108,3790,3495,106203,1
32.80031132698059,-2422,2189,2050,106684,1
32.84039306640625,140,1833,-388,106686,1
32.88055944442749,828,2264,-703,106603,1
32.920830726623535,2019,1208,-760,106347,1
32.95932650566101,1167,-1561,1315,105815,1
32.99955654144287,325,-6887,1269,105721,1
33.039424419403076,-3195,-4677,2049,105134,1
33.079447984695435,-2112,-1668,4898,105362,1
33.119354486465454,-42,-4811,1046,105673,1
33.15949511528015,-450,-4254,1356,106502,1
33.19951772689819,2095,-1535,-1358,106872,1
33.239460468292236,1426,230,2534,106916,1
33.279534578323364,2716,2961,1314,107459,1
33.319374322891235,-350,6473,4493,107826,1
33.35955333709717,-3943,7313,3309,107849,1
33.39948487281799,-2389,5653,2439,107213,1
33.43944048881531,-1152,5003,2105,107500,1
33.479382276535034,-1343,1921,-338,107934,1
33.51883387565613,3741,-968,-1453,107909,1
33.55850625038147,999,-8688,3811,106954,1
33.59851360321045,-5119,-6258,5921,105849,1
33.638500452041626,-2419,-4595,5103,105502,1
33.67847013473511,1256,-5675,1272,105396,1
33.71849513053894,2100,-2527,-164,105287,1
33.75834107398987,1353,260,2033,105280,1
33.79847478866577,1284,2025,1879,105658,1
33.839096784591675,-60,5176,3200,106105,1
33.87841582298279,-1542,10609,-470,106200,1
33.9184935092926,-4424,4137,-150,105751,1
33.95850372314453,-1118,4867,4921,105510,1
33.99840044975281,-159,2109,1826,106668,1
34.03745794296265,450,-391,-225,107224,1
34.07747220993042,1266,-3341,257,107204,1
34.11749315261841,-2112,-9355,1617,106181,1
34.15749263763428,-3636,-4192,6445,104927,1
34.19748306274414,2403,-4729,1535,104880,1
34.237324714660645,296,-3355,-115,104867,1
34.27735996246338,1809,-501,361,105044,1
34.31839632987976,1292,2169,1263,105508,1
34.357327699661255,3468,4839,1974,106060,1
34.39732098579407,-243,7948,4537,105482,1
34.43748354911804,1645,4705,6163,106156,1
34.47738766670227,2469,3466,1781,106658,1
34.51759910583496,3954,3247,-61,107322,1
34.55650448799133,1991,-951,-1077,108056,1
34.596927642822266,1693,-9018,-34,107790,1
34.636545181274414,-6034,-9689,972,106947,1
34.677109241485596,-3796,-3444,5117,106338,1
34.71631979942322,1343,-6375,1443,106431,1
34.7563362121582,718,-4320,-278,105983,1
34.79648399353027,1143,-573,2005,105466,1
34.836612701416016,2746,2594,2415,105751,1
34.87634229660034,-1915,8038,1121,106638,1
34.91759943962097,-4144,11457,-1100,106446,1
34.956490993499756,-7073,6856,10772,105253,1
34.996498346328735,-3639,3267,2844,107142,1
35.03635001182556,-979,1235,-2956,107275,1
35.07532596588135,4683,-425,-1560,107528,1
35.11555790901184,4146,-9991,-4782,106072,1
35.155486822128296,-2473,-11137,4443,104721,1
35.19551396369934,-2689,-3795,4835,104254,1
35.23546814918518,350,-6678,2036,104379,1
35.27548336982727,1565,-3560,1259,104762,1
35.31567120552063,-1286,-383,2558,105063,1
35.35546636581421,-1018,2713,4992,105713,1
35.395503997802734,-3038,4964,4065,106782,1
35.43535804748535,-2799,4999,-1177,107024,1
35.4753212928772,-3951,4472,-394,106405,1
35.515464544296265,-1854,5773,3996,105660,1
35.555474281311035,-2764,5313,1861,106483,1
35.59449601173401,-374,4371,-422,106719,1
35.634474992752075,1531,3545,1150,106882,1
35.67450141906738,1464,-2611,-2077,106791,1
35.71446514129639,2133,-9598,5626,105552,1
35.75449180603027,-4918,-8982,4368,105479,1
35.79434895515442,-3909,-6528,-127,105326,1
35.83444786071777,3407,-5395,2238,104962,1
35.875420331954956,815,-2075,2018,105008,1
35.914653062820435,973,598,1035,104899,1
35.95447659492493,485,2785,3719,105044,1
35.9945387840271,-1317,3257,1703,105601,1
36.03436779975891,-4836,6602,1964,105889,1
36.07449173927307,-6435,5155,4726,105516,1
36.11446762084961,-4681,3798,4290,104592,1
36.15336298942566,-2972,2716,1673,104633,1
36.193532943725586,871,2190,-1386,105702,1
36.23349618911743,2787,1955,-1512,105810,1
36.27346444129944,3228,-3181,495,105593,1
36.31345772743225,992,-12872,2736,103893,1
36.35344219207764,-4435,-6469,6253,103294,1
36.3934485912323,-811,-6606,2685,103205,1
36.43343687057495,2225,-4967,2533,102866,1
36.473437786102295,1879,-946,2143,103374,1
36.51347851753235,-826,1729,4891,104300,1
36.553566455841064,-1162,1996,2748,105544,1
36.593467473983765,-3124,4784,-495,106050,1
36.63345909118652,-8315,8866,-3609,105957,1
36.67280602455139,-7430,6517,2988,105473,1
36.71244740486145,-5501,3923,2519,105032,1
36.75244927406311,-1188,1807,-3387,105322,1
36.79281663894653,2064,1149,-2259,105545,1
36.832451820373535,4008,-3716,-32,103514,1
36.87235403060913,2306,-12975,1258,100346,1
36.91234612464905,-2006,-4488,9338,101650,1
36.95282554626465,-1201,-6260,944,102790,1
36.99251055717468,1245,-7236,-467,101788,1
37.032477617263794,1015,-3144,2238,101886,1
37.07245349884033,385,59,802,102135,1
37.112539768218994,-1951,2084,5067,103365,1
37.15247201919556,-911,3936,1804,104235,1
37.191489458084106,-4643,4994,3890,104415,1
37.231359004974365,-4295,6209,2872,104672,1
37.271440267562866,-1359,4598,4863,104832,1
37.311464071273804,-1680,3639,3403,105924,1
37.351677894592285,-1688,3542,-2355,107476,1
37.39158749580383,-1102,3535,2660,107802,1
37.431479692459106,1929,1509,-26,106463,1
37.47147488594055,784,-4397,-243,105827,1
37.511350870132446,1646,-8903,4611,104987,1
37.55146265029907,-4296,-6745,4363,104175,1
37.59143614768982,-192,-7135,670,104603,1
37.63143467903137,2863,-4546,468,106189,1
37.67143988609314,1821,-1708,624,106197,1
37.71142792701721,690,288,1964,105494,1
37.75045728683472,420,1570,5178,105291,1
37.79046440124512,-756,2459,2795,106071,1
37.83046007156372,-5492,2685,5486,106641,1
37.87048006057739,-4092,3582,1299,106302,1
37.91046071052551,-4061,3902,2137,106219,1
37.9503493309021,-1925,4841,4108,106225,1
37.99044418334961,-2795,3522,2288,106077,1
38.03045153617859,-2640,3020,2948,106379,1
38.07043218612671,-600,2352,1842,106472,1
38.11050271987915,24,-338,-1497,106186,1
38.150495767593384,2633,-5188,2685,105376,1
38.19063711166382,-2049,-10229,5057,103889,1
38.23046278953552,-4105,-6495,7402,103418,1
38.269437313079834,2577,-6339,294,103164,1
38.30943155288696,2756,-3206,1020,103295,1
38.34945201873779,1792,-328,-812,88795,1
38.38940191268921,1166,938,1536,26632,1
38.429407358169556,34,1857,4234,82215,1
38.46942090988159,-2572,1014,947,105735,1
38.50944471359253,-3968,3036,5790,106010,1
38.54944729804993,-7766,4931,-556,107413,1
38.58944749832153,-5372,4373,5153,108659,1
38.62944030761719,-1464,3331,4357,109929,1
38.66944646835327,-2553,1059,761,110924,1
38.709630489349365,-283,860,753,111302,1
38.74951934814453,464,372,488,111206,1
38.78846979141235,547,-120,1284,109684,1
38.828434467315674,869,-1090,2256,109193,1
38.86874771118164,-1925,-3258,2430,108809,1
38.90844488143921,497,-2723,3250,106317,1
38.94843149185181,-328,-2596,2939,54457,1
38.98859739303589,-269,-2039,3297,8790,1
39.02845239639282,1635,-1831,1977,7120,1
39.06843090057373,1023,-1543,1760,5299,1
39.108412981033325,2032,-258,1540,4219,1
39.18803000450134,2033,1066,432,11762,1
39.201287269592285,1632,2036,2133,76825,1
39.228434324264526,1340,2360,1865,85377,1
39.2684428691864,180,1732,1783,80807,1
39.30740189552307,15,1703,2715,75756,1
39.347445487976074,174,1243,1491,68957,1
39.38774275779724,-279,896,1433,14780,1
39.42738652229309,102,1080,1995,2753,1
39.467390060424805,203,1001,1375,1613,1
39.507404804229736,-226,1076,2202,1423,1
39.547404289245605,334,1246,1731,2104,1
39.58788537979126,-317,1024,1083,4111,1
39.62752318382263,-470,1119,1686,10087,1
39.667441844940186,540,1296,1677,66135,1
39.7074499130249,184,1024,1709,105452,1
39.74741888046265,300,1196,2488,100227,1
39.78749370574951,-295,804,1102,100138,1
39.82742476463318,-638,929,1540,89421,1
39.86642503738403,-418,1133,2189,81351,1
39.90642189979553,-268,973,1631,103604,1
39.946478843688965,-267,990,1588,105314,1
39.98652625083923,-25,1083,1925,105601,1
40.02642798423767,172,902,1455,106171,1
40.06648278236389,-357,208,1655,106938,1
40.106465578079224,-814,-658,1781,107003,1
40.14646315574646,-2307,-1871,1255,106643,1
40.1864755153656,-2073,-1118,2429,106942,1
40.22642779350281,-532,104,1578,107731,1
40.26647186279297,-1066,1757,1774,109306,1
40.306474924087524,-1503,4004,2428,110407,1
40.3469557762146,-2653,4902,2114,110322,1
40.38542413711548,-3868,4416,3196,109885,1
40.42543911933899,-2111,3461,2253,109669,1
40.46540880203247,204,2619,494,109533,1
40.505441427230835,1269,1412,2,109571,1
40.54542517662048,3199,-3288,370,109963,1
40.58545541763306,1283,-10293,-111,108927,1
40.62555193901062,-3175,-7111,3777,108821,1
40.66542887687683,291,-5213,427,108574,1
40.70547366142273,142,-3102,2264,108272,1
40.74542737007141,113,-1036,1589,108207,1
40.785425662994385,-1420,373,3600,108814,1
40.82578372955322,-1339,2474,4376,108986,1
40.86551785469055,-2615,2603,429,108743,1
40.9044623374939,-5904,3822,1732,108874,1
40.94442176818848,-5381,4282,750,109232,1
40.98445415496826,-3561,3688,959,109273,1
41.02445936203003,-2821,2840,1424,109381,1
41.06447911262512,-1813,2192,-860,109871,1
41.104459047317505,-1469,711,-2268,110363,1
41.14443373680115,-556,430,-891,110371,1
41.18446135520935,2672,1442,2058,110263,1
41.22449517250061,3030,-680,1548,109701,1
41.26445484161377,1787,-4641,3287,108960,1
41.30445623397827,742,-6924,3445,108679,1
41.344499588012695,-2194,-5286,3480,108306,1
41.38453507423401,85,-4905,887,108125,1
41.424349308013916,1771,-3541,1771,107973,1
41.46343755722046,1248,-1451,1429,107733,1
41.503451347351074,877,1005,3169,107585,1
41.543447732925415,-1916,1681,4445,108358,1
41.58344340324402,-1845,2432,926,109608,1
41.62348914146423,-3657,2619,2795,109986,1
41.66342091560364,-4607,4394,814,110399,1
41.70344400405884,-5759,4077,-70,110383,1
41.7434663772583,-3996,3961,3162,110325,1
41.78341221809387,-3224,2221,707,110795,1
41.82346224784851,-2116,855,-1189,111437,1
41.86343765258789,351,1226,655,111513,1
41.90342950820923,1754,318,954,111511,1
41.94244575500488,1458,-2025,2624,111203,1
41.982462882995605,601,-5918,2871,109898,1
42.0226731300354,-2235,-6671,3361,108747,1
42.0624463558197,-3059,-5531,2430,108360,1
42.102484464645386,542,-4599,1026,108138,1
42.14245843887329,341,-2631,1542,108043,1
42.18244481086731,1773,64,1525,108504,1
42.22241997718811,452,1691,3284,109428,1
42.26248025894165,-2261,2070,3565,110497,1
42.302464723587036,-5229,2845,271,111119,1
42.34245324134827,-6027,5606,134,111154,1
42.38247895240784,-3922,4822,1058,111086,1
42.421441316604614,-2499,3304,1868,111690,1
42.46144437789917,-1194,2178,294,112753,1
42.50146508216858,-215,1756,-1080,112458,1
42.541422843933105,-58,1431,1251,112386,1
42.58141255378723,1816,60,1851,112452,1
42.62142992019653,354,-3769,1758,111290,1
42.661476612091064,623,-6108,4252,110387,1
42.70163059234619,-1714,-5564,3794,110028,1
42.74143958091736,-1800,-5408,1375,109944,1
42.78146409988403,676,-3984,593,110147,1
42.82164525985718,219,-2327,-205,110450,1
42.86204695701599,1518,461,1409,110614,1
42.902034282684326,-1784,1013,3075,110810,1
42.94044876098633,-1741,3056,3390,111572,1
42.98049259185791,-1987,3682,3974,112206,1
43.02043867111206,-4643,4946,2635,112644,1
43.06056451797485,-4234,5139,1512,112638,1
43.10048532485962,-2353,4056,2728,112629,1
43.140454053878784,-1861,3004,1888,112721,1
43.18043851852417,-1142,1942,-293,112287,1
43.220436096191406,-190,557,-376,111940,1
43.26081442832947,1705,-1531,557,111513,1
43.30054783821106,1866,-5424,973,110922,1
43.340489864349365,-254,-6649,4538,111519,1
43.38044190406799,-902,-4998,1614,112546,1
43.42048931121826,-434,-4109,1036,112245,1
43.460225105285645,121,-2854,1995,111938,1
43.49946713447571,1101,-1624,2229,111080,1
43.539440631866455,-2070,-447,4475,111477,1
43.57944631576538,-3283,253,2532,111983,1
43.61956238746643,-4385,2010,4181,112130,1
43.65984487533569,-3373,2604,928,113079,1
43.699522972106934,-3158,4033,-247,113040,1
43.7394802570343,-1912,5059,787,113139,1
43.779557943344116,-2742,3455,-12,113141,1
43.81956958770752,-1980,2904,1518,112962,1
43.859673261642456,-1320,1878,1581,112968,1
43.89950466156006,-727,398,-752,113031,1
43.9394896030426,492,-68,2073,112483,1
43.97858142852783,726,-3518,1888,112228,1
44.01855659484863,-1453,-7227,1114,111484,1
44.05856275558472,-2655,-5353,3115,111240,1
44.098543882369995,-446,-4372,939,111265,1
44.13858604431152,277,-3220,1023,111149,1
44.178515911102295,82,-1663,1474,111136,1
44.218526124954224,1151,-317,2318,111081,1
44.25863337516785,676,673,2916,111358,1
44.29849934577942,-2086,149,2636,111303,1
44.33853602409363,-2557,1321,5106,110972,1
44.37853217124939,-2569,2041,4069,111092,1
44.41852855682373,-3901,2960,3315,111266,1
44.45872116088867,-4595,4129,2799,111967,1
44.49754357337952,-3668,3603,1490,112330,1
44.53750133514404,-2770,2415,2012,112214,1
44.57757544517517,-1053,1715,1608,112248,1
44.617480516433716,461,1712,118,112463,1
44.657551527023315,683,1168,2285,112599,1
44.69750738143921,2349,-3724,-143,112523,1
44.73750019073486,-442,-9384,2985,111209,1
44.77751541137695,-3322,-5861,3653,111025,1
44.817543506622314,-1777,-5404,-517,110632,1
44.85779619216919,-334,-5044,2502,109977,1
44.89766716957092,1151,-2636,2572,109832,1
44.93747687339783,441,108,3331,109705,1
44.976505279541016,112,2344,2693,109793,1
45.01660752296448,-916,1908,1392,110290,1
45.0565140247345,-1098,2951,1555,110799,1
45.09657120704651,-4768,6097,363,111164,1
45.13653349876404,-7083,5158,1144,111456,1
45.17651963233948,-1369,4840,6357,112017,1
45.21660804748535,-3061,1245,3464,112640,1
45.25666117668152,230,-17,-863,112465,1
45.29692244529724,2008,176,736,112454,1
45.336604595184326,1790,-3976,-561,112363,1
45.3766233921051,-358,-7381,2978,111438,1
45.41652488708496,-2962,-5765,4597,111744,1
45.45659780502319,-3038,-5999,1877,111165,1
45.49580097198486,2413,-4168,2405,110662,1
45.535560131073,1073,-1049,874,110971,1
45.575493574142456,855,498,1761,108317,1
45.61547923088074,876,3023,5228,108890,1
45.65556049346924,-532,2153,1192,111443,1
45.69565176963806,-5245,4281,1459,111669,1
45.73567342758179,-6489,7188,1437,111809,1
45.775750160217285,-3938,6353,2481,108987,1
45.815592527389526,-3708,4357,5522,111283,1
45.85550117492676,175,684,-2509,111778,1
45.895565032958984,3773,356,74,111938,1
45.935497760772705,2038,-6501,1481,112413,1
45.97552037239075,-2921,-12889,795,110349,1
46.01553797721863,-5927,-5389,7780,110163,1
46.05450129508972,510,-8706,-992,109378,1
46.094528913497925,1799,-4680,1530,107340,1
46.13452506065369,2226,-859,1288,107320,1
46.17457342147827,1675,1649,1393,106360,1
46.214568853378296,2080,3882,3969,107831,1
46.25456666946411,-982,2018,212,109708,1
46.294739723205566,-1796,3817,1727,109805,1
46.33453059196472,-6147,5228,2522,109379,1
46.37494468688965,-7401,5692,1162,108536,1
46.41467833518982,-3758,4067,2359,109196,1
46.45459842681885,-1324,2718,1678,109789,1
46.49454689025879,2183,2924,-1512,109797,1
46.53449892997742,2290,1809,-980,110164,1
46.57349514961243,2657,-2906,801,109979,1
46.61363410949707,-125,-10432,191,109328,1
46.653578758239746,-7149,-6986,2654,108854,1
46.693520307540894,-3509,-5577,1866,108915,1
46.733585834503174,438,-7912,-379,108691,1
46.77358841896057,1992,-4045,753,108501,1
46.81359887123108,1410,-896,1360,108438,1
46.85350298881531,1129,1611,3366,107778,1
46.89353704452515,567,1521,2937,106941,1
46.93367314338684,-2437,1532,2714,106046,1
46.97355604171753,-3446,2700,2740,108442,1
47.01353049278259,-5932,3247,-945,109449,1
47.053547859191895,-4093,5411,2959,107209,1
47.09251832962036,-3005,3801,2151,107446,1
47.13257884979248,-1771,2933,651,107120,1
47.1726655960083,-382,2572,1217,105491,1
47.21256685256958,-319,1824,2090,104951,1
47.25255513191223,834,110,1247,106153,1
47.29254603385925,1027,-4218,1153,107707,1
47.333274364471436,-669,-8580,1602,108373,1
47.37254476547241,-4738,-6885,1170,107023,1
47.41349196434021,-2199,-6505,3441,107429,1
47.452521562576294,2654,-5314,-452,108101,1
47.49250268936157,1295,-1673,871,107263,1
47.532533407211304,1545,1280,3034,106520,1
47.572635650634766,1436,2801,2957,107270,1
47.611512660980225,167,2933,2351,107964,1
47.65155911445618,-2133,2291,2411,108304,1
47.691588163375854,-3915,1609,1873,108474,1
47.731531381607056,-2992,2602,2648,108509,1
47.77151131629944,-1775,4318,2570,108651,1
47.8116250038147,-1350,4965,2481,108461,1
47.851547956466675,-641,4068,2711,108463,1
47.89156174659729,1120,3052,1076,108741,1
47.931581020355225,2441,475,-823,108615,1
47.97149848937988,1853,-5479,2436,107367,1
48.011544942855835,-2211,-11151,2512,107011,1
48.05150890350342,-6907,-3747,3434,106724,1
48.091522216796875,-1782,-5125,2417,107118,1
48.13058114051819,1133,-4526,154,107380,1
48.170490980148315,727,-2408,814,107290,1
48.210559368133545,1217,-233,815,107460,1
48.25054311752319,1723,1060,1374,106782,1
48.29056358337402,1590,2129,2605,106791,1
48.33053016662598,431,1784,2160,107625,1
48.37065863609314,-1414,1804,2180,107186,1
48.41057348251343,-3203,1775,2424,106712,1
48.45057988166809,-3985,2668,2392,106902,1
48.49060559272766,-3047,3952,1704,107596,1
48.53053617477417,-2179,4131,888,108221,1
48.57054305076599,-1654,2788,1009,108414,1
48.610642194747925,-942,2349,1288,108467,1
48.649545669555664,-92,1407,1507,108374,1
48.68977069854736,542,603,2044,108074,1
48.72954845428467,583,-1125,2328,108063,1
48.769530296325684,-619,-4070,-1153,108064,1
48.820390701293945,-2637,-5766,3905,106816,1
48.8578622341156,-3253,-3195,5133,106759,1
48.889594316482544,-2701,-4583,2957,106802,1
48.929572105407715,-153,-4007,905,106559,1
48.96964645385742,1223,-1513,676,106296,1
49.00951528549194,900,459,1404,106299,1
49.04955863952637,1710,1975,1927,106338,1
49.08959603309631,316,2816,2744,106556,1
49.12979817390442,-963,1617,1069,107392,1
49.16863679885864,-2803,2151,1353,108120,1
49.20855712890625,-2553,3396,3498,108643,1
49.24856972694397,-3076,3083,3102,108977,1
49.28910231590271,-2405,2722,2877,109107,1
49.328479051589966,-987,2144,2694,109253,1
49.36885166168213,-110,1720,1541,109452,1
49.40857791900635,1208,1634,1360,109451,1
49.44854927062988,2156,562,1116,109552,1
49.4885778427124,1679,-3046,1555,109335,1
49.528565883636475,-387,-7187,1421,109079,1
49.56853246688843,-3277,-6176,3514,110573,1
49.608566761016846,-5172,-5748,1052,112121,1
49.64857244491577,1336,-4936,-233,111267,1
49.687493562698364,902,-2190,1493,110766,1
49.72746706008911,340,-861,509,110627,1
49.76763725280762,1236,449,1873,110026,1
49.807615995407104,1058,2301,3148,110123,1
49.84749412536621,-724,310,1951,109989,1
49.88756346702576,-4016,-341,5491,109828,1
49.92753219604492,-3146,372,3979,110916,1
49.96769452095032,-3539,502,1758,111466,1
50.00762724876404,-4507,1400,2220,111593,1
50.047537326812744,-2980,2084,861,111752,1
50.08753728866577,-2882,1866,442,111612,1
50.1276912689209,-2100,1481,920,111055,1
50.16750693321228,-215,1627,1155,110551,1
50.20651197433472,-144,1670,800,110612,1
50.24654746055603,283,1149,1213,110586,1
50.286563873291016,2342,-567,1609,110598,1
50.32655215263367,1487,-6858,654,110293,1
50.366655111312866,-2135,-8007,1723,109488,1
50.40658497810364,-2612,-5369,1881,109271,1
50.44658946990967,-1614,-4928,297,109077,1
50.48658037185669,-244,-3376,1176,108814,1
50.52658295631409,-1165,-922,3252,108291,1
50.56653141975403,-1267,645,2924,107774,1
50.60655164718628,-2309,2605,5431,105736,1
50.64656901359558,-1215,5301,3736,107782,1
50.686607360839844,-2773,4573,-277,108209,1
50.725820541381836,-2391,4276,1395,108234,1
50.765509366989136,-1409,3910,691,108675,1
50.805583477020264,-1048,3106,-791,108682,1
50.84552478790283,357,3502,937,108678,1
50.885536193847656,1225,2330,2106,108853,1
50.9256227016449,1307,-2749,790,108625,1
50.96545886993408,884,-8004,2771,107409,1
51.00562024116516,-3900,-6361,3157,107955,1
51.04555869102478,-4638,-4137,3246,108198,1
51.085556745529175,2124,-5625,1626,108121,1
51.12554359436035,2042,-3881,600,108176,1
51.16554617881775,1254,-1886,747,108252,1
51.205835580825806,1496,160,3083,107939,1
51.24462532997131,817,2042,5299,108035,1
51.2845458984375,411,2967,3600,108376,1
51.32452321052551,-44,2844,3305,108096,1
51.36455798149109,-1741,2040,2776,108500,1
51.404823303222656,-2925,1345,362,108960,1
51.44456601142883,-1966,2433,-128,109137,1
51.48458790779114,-1186,4617,1721,109157,1
51.52458715438843,-1374,4416,2418,109104,1
51.56453585624695,171,4604,3926,108569,1
51.6050763130188,1830,3884,2546,108798,1
51.64452862739563,641,-639,99,108996,1
51.6845383644104,2997,-6318,999,108171,1
51.72466731071472,-4345,-9918,6606,106716,1
51.76355290412903,-6455,-5013,4201,106990,1
51.803709745407104,125,-5360,1278,107012,1
51.84355306625366,1519,-3619,1656,106801,1
51.88363838195801,888,-1193,812,106724,1
51.92351055145264,425,407,2491,106379,1
51.963489294052124,427,2206,3691,106852,1
52.00355553627014,-1127,1946,898,107454,1
52.04350137710571,-2692,2431,3093,107211,1
52.08421325683594,-4664,1581,2465,107582,1
52.12467622756958,-3556,2065,1504,108029,1
52.16351628303528,-1962,2703,1230,108266,1
52.20350193977356,-1901,2899,182,108490,1
52.24260210990906,-2146,4259,422,108691,1
52.282585859298706,-2634,4132,1601,108685,1
52.32259202003479,-3499,3091,2770,108623,1
52.36256551742554,-1784,1981,1437,108556,1
52.40248656272888,568,1083,825,107592,1
52.44260597229004,1217,-1341,1280,107250,1
52.48250412940979,736,-5010,3567,106858,1
52.52257776260376,-4439,-7334,645,106597,1
52.5625205039978,-2332,-4853,3277,106730,1
52.60301733016968,15,-3797,1606,107296,1
52.64251756668091,295,-2624,758,107271,1
52.68301773071289,1182,-688,1414,107156,1
52.72251915931702,1339,290,2337,106975,1
52.76154088973999,-746,675,2970,106899,1
52.80152916908264,-1566,613,2792,107643,1
52.84152626991272,-1885,1771,3732,109008,1
52.88150238990784,-3707,1849,3097,109751,1
52.921515464782715,-2242,3075,2657,109631,1
52.96154808998108,-1816,3823,2436,109243,1
53.001598834991455,-2912,4276,1677,109384,1
53.04159474372864,-2939,3417,1600,109448,1
53.08153581619263,-728,2516,1932,109617,1
53.121490240097046,-833,2268,2428,109842,1
53.16154479980469,-967,1513,2997,109865,1
53.20148062705994,82,-263,1742,109785,1
53.241724252700806,789,-3036,4009,108738,1
53.28051710128784,1759,-4485,4334,107965,1
53.32051753997803,-1297,-5232,3905,108970,1
53.36058282852173,-2019,-3893,2590,109921,1
53.40051627159119,301,-3602,210,109679,1
53.44127631187439,1137,-2590,545,109314,1
53.480512619018555,1028,-1221,693,109057,1
53.520514726638794,1262,-318,476,108863,1
53.56050682067871,1450,55,1221,108792,1
53.60055208206177,1824,801,1874,108788,1
53.64057278633118,-203,-307,2771,108718,1
53.68053340911865,-2255,296,5215,108384,1
53.720571517944336,-2777,1503,7321,107905,1
53.760563135147095,-13,2429,4110,108998,1
53.79949355125427,-463,2781,1556,109771,1
53.839759349823,-944,3630,1433,109859,1
53.87957048416138,-3404,3512,2459,109735,1
53.919519901275635,-1660,3071,2178,109948,1
53.95952272415161,-1933,2339,2241,110122,1
53.999518394470215,-1393,1411,1370,110376,1
54.03969597816467,683,1242,-944,109519,1
54.07960343360901,1447,574,1620,106876,1
54.11953544616699,2011,-2237,1630,107242,1
54.15953516960144,-384,-5824,2344,106684,1
54.19959235191345,-2601,-5137,5397,106742,1
54.239577770233154,-1391,-4538,2185,107181,1
54.27953362464905,-1579,-4179,1009,106992,1
54.31850838661194,492,-2648,842,104890,1
54.358622550964355,1486,-577,1258,102227,1
54.398539304733276,2444,1701,1132,104330,1
54.438557863235474,756,1461,1688,106494,1
54.47856545448303,-1218,1413,3549,107591,1
54.51854920387268,-2259,516,1178,108279,1
54.55854272842407,-2979,1445,2129,108126,1
54.598732709884644,-2634,2680,2477,107620,1
54.638535499572754,-4972,3412,1669,107275,1
54.67859172821045,-4030,4311,6525,107563,1
54.71864151954651,-1847,2635,3906,107757,1
54.7585608959198,-826,2141,2337,107886,1
54.79850792884827,336,2156,486,108093,1
54.83753514289856,1074,1079,-1007,107999,1
54.87760353088379,2352,-1471,-749,107859,1
54.91753053665161,1275,-9232,3063,107899,1
54.95754361152649,-6182,-9008,2160,107180,1
54.997551679611206,-4168,-7736,1849,107884,1
55.037532567977905,2103,-5346,1854,107426,1
55.07758140563965,84,-2425,2852,107149,1
55.11757516860962,2466,2162,3339,107340,1
55.157562494277954,1126,5231,4345,107660,1
55.1975474357605,-3430,3330,1095,108235,1
55.23758125305176,-2554,3720,745,108281,1
55.2779746055603,-3375,3053,1324,108352,1
55.31765365600586,-2479,2964,181,108515,1
55.35656428337097,-1766,4137,2489,108606,1
55.3965904712677,-3561,3273,917,109758,1
55.436586141586304,-2330,2784,-1063,110160,1
55.476691484451294,587,2859,231,109323,1
55.51653790473938,-475,502,1929,109185,1
55.55652403831482,297,-3241,3194,109557,1
55.596564054489136,-528,-14297,1319,109942,1
55.636595487594604,-4024,-8942,1155,108941,1
55.67656064033508,3064,-4240,1164,108210,1
55.716580390930176,-841,-2576,2342,108137,1
55.75653696060181,889,1076,2544,108110,1
55.796549797058105,-1228,1742,2252,108336,1
55.83654999732971,-2656,2259,900,108769,1
55.87613916397095,-1736,2471,654,109050,1
55.9155535697937,-4178,2295,2440,109067,1
55.95556569099426,-1098,3340,3916,109369,1
55.995537757873535,-1159,3052,2831,109777,1
56.03555679321289,-3140,3123,1376,109826,1
56.07555556297302,-3353,3262,-249,110039,1
56.116215229034424,-1864,3942,-413,110133,1
56.15582227706909,-2511,3914,-143,110030,1
56.19559097290039,-2892,2613,193,109751,1
56.23592472076416,-863,827,3262,110130,1
56.27553367614746,3817,-5329,1620,109007,1
56.315598011016846,-3523,-11554,6919,109711,1
56.35558247566223,-3910,-8925,-195,110496,1
56.3945631980896,-452,-8184,2728,108814,1
56.43473505973816,732,-3601,3409,108942,1
56.47495245933533,1885,538,1905,109266,1
56.514525175094604,2393,3582,5236,109308,1
56.55455207824707,-694,820,2832,110409,1
56.59453248977661,-2889,836,3165,110904,1
56.634565353393555,-5416,1480,273,111219,1
56.67455720901489,-6024,4406,-1341,111197,1
56.71458292007446,-4945,4947,394,111063,1
56.754581928253174,-3096,4434,541,111022,1
56.79462957382202,-2229,3179,-1073,111009,1
56.834694147109985,-1189,2831,-1780,110909,1
56.87455439567566,-141,1909,-744,110716,1
56.913673877716064,965,-277,701,109712,1
56.95360732078552,2327,-4761,4129,108719,1
56.99361824989319,-5406,-11751,1256,108520,1
57.03361177444458,-6572,-9139,2735,108768,1
57.073582887649536,-70,-9167,251,108217,1
57.11355376243591,1578,-4955,4572,108014,1
57.15369510650635,3148,-749,2991,108041,1
57.19361877441406,3054,1341,6235,107207,1
57.23354744911194,3200,1364,4874,108627,1
57.27354574203491,-1066,627,401,108796,1
57.31393313407898,-2543,2461,2715,108815,1
57.35366225242615,-3562,1104,35,108873,1
57.3926100730896,-4153,2336,1816,107697,1
57.43256950378418,-2800,2625,1419,107692,1
57.47259068489075,-2810,3487,-891,108306,1
57.51296663284302,-3334,4722,-493,108798,1
57.552587270736694,-2019,4364,1394,109074,1
57.59257888793945,985,3186,395,109307,1
57.632530212402344,1708,249,495,108923,1
57.672932147979736,1407,-4701,3837,107776,1
57.71324276924133,-3745,-10994,685,106774,1
57.75263333320618,-6109,-5476,2873,106473,1
57.79263734817505,-487,-7693,2149,106551,1
57.83258008956909,2357,-6036,983,106281,1
57.87257432937622,2432,-1782,1889,106266,1
57.91180467605591,1882,497,1790,106259,1
57.95157766342163,237,1681,3291,106104,1
57.99162149429321,-967,1957,1575,106248,1
58.031617403030396,-4384,1446,1942,106044,1
58.07160019874573,-3734,1987,3347,106260,1
58.11156964302063,-3046,1810,596,106923,1
58.1515748500824,-2578,2445,448,107107,1
58.19161057472229,-2233,3109,982,107315,1
58.2316038608551,-2732,3225,718,107619,1
58.27155947685242,-3290,3277,2313,107588,1
58.3115713596344,-2498,3083,2409,108022,1
58.35162043571472,-1227,1871,-63,108421,1
58.40691876411438,-552,994,1084,108271,1
58.436676025390625,45,-399,1729,108389,1
58.470614433288574,-1080,-3282,1233,107368,1
58.51064491271973,-1736,-4493,4904,106034,1
58.550589084625244,-2315,-5472,2787,105561,1
58.590632915496826,-1275,-4470,2101,105474,1
58.63062024116516,1101,-2700,1793,105453,1
58.67058873176575,1604,-855,895,105391,1
58.710750579833984,1462,429,1584,105346,1
58.75058078765869,750,863,1092,105627,1
58.79066562652588,-3175,442,1335,105712,1
58.8306097984314,-3817,1135,2053,105610,1
58.870604038238525,-2947,1584,2973,105749,1
58.90977644920349,-2144,2399,2235,105878,1
58.94962763786316,-3486,3425,3609,106059,1
58.98962116241455,-3283,4338,2831,106873,1
59.0296196937561,-3720,3798,1682,107313,1
59.069573640823364,-3391,2689,3290,106660,1
59.1095769405365,-3664,1014,808,106986,1
59.14960551261902,-3163,718,-1867,107161,1
59.1896014213562,-3605,340,1224,106894,1
59.22965908050537,-1864,-1004,-827,107388,1
59.26960110664368,-135,-1862,1944,107293,1
59.30960011482239,2171,-5423,3147,107003,1
59.350067377090454,-602,-8322,3317,106091,1
59.38858675956726,-643,-7274,3142,106041,1
59.42859888076782,1614,-5719,-555,106049,1
59.46862244606018,-169,-2236,2165,106050,1
59.50873041152954,2042,1224,2962,106687,1
59.54871392250061,-2368,1336,3651,107092,1
59.5886025428772,-3773,2978,3424,107806,1
59.6285982131958,-5967,4116,272,107806,1
59.66863036155701,-8220,5117,5705,107314,1
59.70885872840881,-5077,3803,4285,107834,1
59.74866771697998,-3398,2050,797,108689,1
59.78865194320679,-2510,753,528,108642,1
59.82871103286743,-523,-240,627,108735,1
59.86862659454346,1418,-2876,-269,108260,1
59.90785598754883,-1262,-4378,1664,107297,1
59.94789433479309,-2020,-4728,2591,106683,1
59.987573862075806,-691,-3791,1648,33688,1
60.02760720252991,188,-2407,1071,2330,2
60.06762623786926,480,-1372,1091,1141,2
60.10756325721741,1723,-334,2108,976,2
60.147926568984985,1610,281,2421,978,2
60.18756031990051,-120,412,2522,816,2
60.227606534957886,-2590,-322,2518,760,2
60.267579793930054,-2970,-198,1140,725,2
60.30756211280823,-2059,-170,3298,677,2
60.34760332107544,-1038,207,2684,671,2
60.38656234741211,-1153,-300,1813,704,2
60.42655634880066,-1438,-205,3305,702,2
60.46659064292908,-764,-286,2525,700,2
60.50659656524658,-238,-1163,1930,725,2
60.54693675041199,-710,-848,2744,725,2
60.58660817146301,-483,-983,2012,736,2
60.666545391082764,-201,-646,2747,763,2
60.667277812957764,-272,-60,2927,751,2
60.7065908908844,-129,-163,2085,731,2
60.746681213378906,-702,-398,1100,717,2
60.78657245635986,-78,-265,1553,708,2
60.82656741142273,-1351,-593,509,715,2
60.86660599708557,-864,-878,1628,733,2
60.90553331375122,-1081,-992,2157,746,2
60.94564390182495,-155,-788,1640,752,2
60.985671281814575,307,-1075,3362,755,2
61.02556133270264,148,-885,1353,756,2
61.06556844711304,339,-1062,2957,788,2
61.10551571846008,77,-715,2608,778,2
61.14555096626282,159,-175,2683,745,2
61.185558557510376,180,-138,830,730,2
61.22560453414917,-1530,-901,3436,726,2
61.26559829711914,-485,-88,2222,693,2
61.305596113204956,-234,-174,2083,689,2
61.34560251235962,-231,213,2087,702,2
61.38462996482849,-1078,169,2274,731,2
61.42458701133728,-574,-293,1903,735,2
61.46460938453674,-335,-535,1857,736,2
61.50458526611328,-927,-147,1910,747,2
61.54457402229309,-834,-258,1751,759,2
61.58461570739746,-1205,-205,2139,776,2
61.62456750869751,19,-131,1232,766,2
61.664642095565796,-1449,-224,1335,750,2
61.7045636177063,-994,729,5150,710,2
61.74453806877136,-682,-268,513,688,2
61.7847695350647,-303,-215,1707,877,2
61.824753761291504,-3341,41,3746,2762,2
61.86360287666321,-791,-114,1293,13926,2
61.903635025024414,-1268,741,1594,67336,2
61.94359016418457,-1388,393,1925,93080,2
61.98401403427124,-520,627,1174,98962,2
62.02372336387634,-1345,364,1899,104837,2
62.06359577178955,-657,470,815,108783,2
62.10360026359558,-284,46,1214,107561,2
62.14363169670105,-1374,223,1666,34118,2
62.18359065055847,-870,76,1023,44254,2
62.22422170639038,-874,77,593,83744,2
62.263590574264526,-1614,305,1854,86009,2
62.30358552932739,-1290,146,1532,95920,2
62.34455871582031,-1081,-290,1125,104559,2
62.38269281387329,-1581,-249,2145,106204,2
62.42259860038757,-1321,-515,1590,106922,2
62.462624073028564,-1330,-828,793,106863,2
62.502673864364624,-1848,-163,1984,106741,2
62.54262113571167,-1212,159,2189,106689,2
62.58267045021057,-922,268,1511,106930,2
62.6225905418396,-755,588,1520,107179,2
62.66261315345764,-156,302,1213,107831,2
62.70260453224182,612,-317,820,108440,2
62.74261212348938,474,-888,1565,108040,2
62.782620668411255,-950,-1306,2638,107216,2
62.82284736633301,-1772,-689,3102,106884,2
62.86167359352112,-1447,-710,2197,106778,2
62.90166449546814,-696,-1067,841,106978,2
62.94168949127197,-426,-1698,815,106790,2
62.98174571990967,-1174,-1831,1779,106353,2
63.021623611450195,-1931,-793,2151,105956,2
63.061630725860596,-2072,-377,1524,105701,2
63.10161066055298,-1319,-421,809,105653,2
63.14161705970764,-1124,-788,1360,105712,2
63.18164396286011,-1267,-1254,1514,105268,2
63.22167897224426,-1437,-1737,1055,105000,2
63.2616503238678,-1908,-1860,1462,104322,2
63.3016459941864,-1343,-1690,1410,104439,2
63.34062838554382,-935,-624,410,104319,2
63.380603313446045,-1381,-201,1561,102655,2
63.42065644264221,-755,-1026,2662,101293,2
63.46078395843506,91,-1364,2415,102838,2
63.500635385513306,-530,-1228,1374,103773,2
63.540655851364136,-710,-1078,1314,104115,2
63.58062505722046,-48,-1470,1355,103824,2
63.6206955909729,-244,-2001,908,103112,2
63.66064953804016,-190,-2313,503,103014,2
63.700639724731445,163,-1960,240,103160,2
63.74061989784241,-235,-1692,402,104704,2
63.780640840530396,-735,-1689,1612,105532,2
63.820852756500244,-779,-1550,2077,105313,2
63.859694957733154,-1240,-1153,1758,105289,2
63.89965748786926,-1394,-1283,1028,105395,2
63.939629316329956,-1248,-1542,673,105522,2
63.97963261604309,-1111,-1709,811,105664,2
64.01987314224243,-1133,-1835,921,105693,2
64.05969333648682,-1037,-1877,468,105852,2
64.09964728355408,-1160,-1836,915,105773,2
64.13964343070984,-1340,-2162,1180,104204,2
64.17967629432678,-1051,-1513,1036,103712,2
64.22021102905273,-946,-665,1332,103435,2
64.2599265575409,-860,-518,1691,103987,2
64.29965996742249,-553,-882,2016,104369,2
64.3386447429657,-314,-1091,1669,104544,2
64.37863683700562,-302,-455,942,104645,2
64.41881585121155,-1047,-1006,1077,104635,2
64.45889806747437,-999,-1058,1226,104674,2
64.49865460395813,-861,-1122,1472,104657,2
64.53917193412781,-766,-1393,1270,104676,2
64.57866549491882,-899,-1689,1479,104773,2
64.61864733695984,-912,-1249,1571,104878,2
64.65866231918335,-1029,-1256,1332,104788,2
64.69863057136536,-1046,-1527,847,104645,2
64.73864483833313,-1075,-1545,583,104593,2
64.77876043319702,-1211,-1657,756,104638,2
64.81889724731445,-1178,-1812,709,104759,2
64.85765862464905,-1139,-1766,697,104909,2
64.89766573905945,-1201,-1734,853,105037,2
64.93767857551575,-1159,-1692,874,105215,2
64.97764277458191,-989,-1555,740,105298,2
65.01761770248413,-855,-1550,767,105332,2
65.05764889717102,-763,-1565,713,105367,2
65.09764361381531,-839,-1643,694,105477,2
65.13763666152954,-1059,-1729,895,105517,2
65.17764234542847,-1275,-1767,1028,105555,2
65.21764969825745,-1305,-1740,1004,105473,2
65.2576732635498,-1350,-1573,1187,105331,2
65.2976644039154,-1384,-1667,1441,105218,2
65.33669376373291,-1157,-1730,1301,105199,2
65.37668490409851,-973,-1559,954,105230,2
65.41665363311768,-791,-1318,730,105218,2
65.45666694641113,-679,-1236,714,105242,2
65.49661183357239,-728,-1292,878,105212,2
65.53666663169861,-866,-1442,1101,105199,2
65.57667088508606,-1115,-1449,1199,105175,2
65.61660599708557,-1169,-1511,885,105164,2
65.65701460838318,-1026,-1576,706,105114,2
65.69667291641235,-844,-1465,781,105104,2
65.73666954040527,-553,-1396,1000,105108,2
65.77668571472168,-346,-1402,1066,105099,2
65.81667137145996,-445,-1363,1175,104964,2
65.85563850402832,-527,-1348,1289,104872,2
65.89567112922668,-618,-1384,1430,104843,2
65.93567514419556,-759,-1447,1059,104877,2
65.97566270828247,-1050,-1364,1187,104889,2
66.01564168930054,-1009,-1331,1357,104911,2
66.05654668807983,-795,-1313,1407,104912,2
66.09574556350708,-878,-1258,1363,104907,2
66.13569736480713,-927,-1301,1317,104877,2
66.17568850517273,-930,-1386,1230,104861,2
66.21582221984863,-906,-1441,1149,104847,2
66.25589942932129,-898,-1465,1037,104886,2
66.29569339752197,-918,-1569,1015,104896,2
66.33465147018433,-907,-1632,1000,104836,2
66.37465167045593,-896,-1596,965,104658,2
66.4146056175232,-933,-1537,898,104517,2
66.4555013179779,-911,-1591,767,104477,2
66.49471020698547,-980,-1752,655,104476,2
66.53468441963196,-959,-1905,543,104466,2
66.57538986206055,-941,-1994,408,104420,2
66.61485075950623,-927,-1898,381,104371,2
66.65465593338013,-948,-1828,515,104366,2
66.69465756416321,-830,-1683,600,104323,2
66.73465013504028,-853,-1708,604,104340,2
66.77466440200806,-976,-1718,567,104359,2
66.81365299224854,-1111,-1694,518,104377,2
66.85385203361511,-1220,-1632,512,104408,2
66.8936550617218,-1222,-1639,463,104403,2
66.93370819091797,-1171,-1620,377,104280,2
66.9736955165863,-1218,-1602,358,104157,2
67.01368451118469,-1258,-1618,516,104109,2
67.05365538597107,-1284,-1730,609,104108,2
67.09366655349731,-1303,-1711,604,104122,2
67.13367080688477,-1341,-1677,566,104135,2
67.17366433143616,-1292,-1666,535,104151,2
67.21367478370667,-1156,-1635,544,104139,2
67.25392293930054,-1047,-1591,584,104147,2
67.29266142845154,-868,-1596,932,104129,2
67.33263731002808,-880,-1684,654,104151,2
67.37272667884827,-890,-1696,692,104183,2
67.41267728805542,-1010,-1758,609,104240,2
67.45269322395325,-1072,-1799,515,104286,2
67.49294877052307,-1000,-1713,396,104175,2
67.53335952758789,-845,-1512,560,103901,2
67.5729296207428,-992,-1456,436,103711,2
67.61277198791504,-1131,-1498,628,103658,2
67.65264391899109,-953,-1650,695,103709,2
67.69269609451294,-1031,-1823,293,103770,2
67.73273134231567,-1304,-1764,404,103880,2
67.7727198600769,-1415,-1609,564,104004,2
67.81170892715454,-1386,-1396,608,104063,2
67.85170102119446,-1264,-1452,703,104091,2
67.89170026779175,-955,-1565,686,104141,2
67.93169713020325,-990,-1552,512,104188,2
67.97171425819397,-1062,-1593,361,104235,2
68.01171278953552,-1092,-1540,743,104169,2
68.05170202255249,-1310,-1583,1001,104096,2
68.09235954284668,-1230,-1810,613,103900,2
68.13170099258423,-1079,-1868,782,103698,2
68.17168593406677,-1068,-1778,860,103635,2
68.21169996261597,-1185,-1728,1056,103649,2
68.26207089424133,-1132,-1724,942,103726,2
68.29777550697327,-1183,-1687,628,103811,2
68.33075189590454,-884,-1652,405,103891,2
68.37068176269531,-785,-1647,222,103933,2
68.41066718101501,-843,-1712,197,103960,2
68.450674533844,-730,-1713,280,103952,2
68.49076652526855,-992,-1648,564,103966,2
68.53071904182434,-1048,-1600,573,103976,2
68.57072830200195,-960,-1613,545,103997,2
68.61103010177612,-955,-1658,625,103980,2
68.65068006515503,-898,-1748,699,103869,2
68.6906623840332,-596,-1822,992,103607,2
68.73075437545776,-562,-1806,1148,103425,2
68.77067255973816,-679,-1736,1054,103419,2
68.80969643592834,-753,-1733,850,103466,2
68.84970688819885,-828,-1704,692,103530,2
68.88987612724304,-870,-1690,534,103566,2
68.92977952957153,-900,-1666,477,103626,2
68.96965003013611,-936,-1657,548,103617,2
69.00970363616943,-953,-1649,689,103629,2
69.04965901374817,-949,-1677,728,103627,2
69.08966279029846,-953,-1726,805,103614,2
69.12971353530884,-911,-1704,938,103610,2
69.1696982383728,-926,-1680,970,103600,2
69.20970034599304,-935,-1689,829,103533,2
69.24971199035645,-870,-1694,680,103308,2
69.28926277160645,-862,-1763,665,103136,2
69.32968354225159,-853,-1758,640,103069,2
69.36876773834229,-851,-1705,714,103069,2
69.40870761871338,-923,-1627,688,103110,2
69.44868469238281,-1005,-1615,670,103132,2
69.48868608474731,-1045,-1671,596,103167,2
69.52869033813477,-1025,-1638,635,103147,2
69.56866955757141,-973,-1629,706,103135,2
69.60868811607361,-943,-1684,757,103109,2
69.64868950843811,-950,-1728,763,103114,2
69.68867230415344,-921,-1716,713,103123,2
69.72873306274414,-913,-1669,695,103146,2
69.76866960525513,-922,-1684,669,103189,2
69.80770707130432,-949,-1673,645,103074,2
69.84781098365784,-965,-1722,676,102869,2
69.8876953125,-1037,-1658,622,102772,2
69.92775344848633,-1011,-1651,697,102801,2
69.96781086921692,-979,-1662,731,102857,2
70.00772047042847,-947,-1670,704,102955,2
70.0477180480957,-948,-1666,702,103017,2
70.0877571105957,-960,-1674,639,103036,2
70.12772965431213,-959,-1674,631,103036,2
70.16770076751709,-943,-1674,640,103067,2
70.207692861557,-928,-1675,664,103108,2
70.24771523475647,-998,-1666,688,103190,2
70.28770422935486,-1030,-1663,678,103251,2
70.32668471336365,-995,-1664,688,103302,2
70.36682486534119,-987,-1667,673,103284,2
70.40679430961609,-976,-1678,649,103092,2
70.44671320915222,-980,-1677,634,102898,2
70.4866874217987,-982,-1682,653,102841,2
70.52742290496826,-955,-1671,667,102856,2
70.56674194335938,-953,-1675,656,102939,2
70.6066780090332,-980,-1675,648,103032,2
70.64668655395508,-920,-1685,675,103163,2
70.6867139339447,-1014,-1696,642,103245,2
70.72687149047852,-980,-1674,678,103303,2
70.76685833930969,-952,-1672,655,103374,2
70.80568361282349,-934,-1707,640,103466,2
70.84569334983826,-971,-1693,642,103525,2
70.88572525978088,-991,-1669,635,103575,2
70.92588472366333,-998,-1669,629,103638,2
70.96571922302246,-995,-1676,639,103528,2
71.00567960739136,-979,-1671,642,103315,2
71.04569005966187,-957,-1697,674,103133,2
71.08570456504822,-977,-1673,635,103092,2
71.12568354606628,-978,-1668,642,103092,2
71.16573739051819,-975,-1676,638,103163,2
71.20567464828491,-994,-1672,617,103202,2
71.24576234817505,-988,-1693,620,103261,2
71.2857255935669,-993,-1676,668,103299,2
71.32473564147949,-980,-1667,644,103327,2
71.36474275588989,-971,-1678,635,103377,2
71.40467762947083,-959,-1702,649,103480,2
71.44472026824951,-1023,-1676,671,103630,2
71.48470783233643,-1022,-1676,649,103791,2
71.52484512329102,-958,-1690,631,103898,2
71.56468081474304,-941,-1703,623,103870,2
71.60469627380371,-946,-1690,609,103637,2
71.64469742774963,-962,-1681,635,103430,2
71.68471479415894,-971,-1692,631,103389,2
71.72507786750793,-971,-1689,638,103414,2
71.7647316455841,-959,-1672,618,103494,2
71.80366897583008,-972,-1691,607,103519,2
71.8437147140503,-963,-1683,609,103529,2
71.88368964195251,-973,-1699,623,103536,2
71.92369842529297,-970,-1693,628,103574,2
71.96368980407715,-944,-1685,648,103586,2
72.00371026992798,-982,-1688,643,103643,2
72.04367923736572,-980,-1675,632,103665,2
72.08370876312256,-995,-1623,636,103722,2
72.12369918823242,-978,-1704,600,103769,2
72.1637315750122,-960,-1705,648,103751,2
72.20372462272644,-976,-1687,620,103474,2
72.24375867843628,-966,-1689,614,103271,2
72.28369331359863,-979,-1673,645,103231,2
72.322674036026,-991,-1675,636,103301,2
72.3627200126648,-986,-1691,637,103403,2
72.40270853042603,-968,-1685,647,103482,2
72.44269132614136,-973,-1677,636,103529,2
72.48272323608398,-977,-1682,615,103538,2
72.52270817756653,-971,-1690,627,103563,2
72.56306672096252,-969,-1682,616,103568,2
72.60269665718079,-963,-1677,625,103602,2
72.64269471168518,-927,-1727,608,103672,2
72.6827461719513,-1007,-1669,629,103707,2
72.72273468971252,-940,-1637,621,103777,2
72.76307821273804,-985,-1729,594,103797,2
72.80239248275757,-1000,-1748,648,103590,2
72.84224939346313,-996,-1728,720,103284,2
72.88173723220825,-1033,-1631,764,103098,2
72.92172741889954,-1064,-1574,810,103080,2
72.96190071105957,-864,-1723,784,103094,2
73.00169730186462,-779,-1815,723,103115,2
73.04169940948486,-665,-1805,631,103085,2
73.08171677589417,-697,-1689,631,103062,2
73.12170505523682,-744,-1600,620,103012,2
73.16174173355103,-880,-1513,736,103010,2
73.20168972015381,-931,-1640,707,103010,2
73.24172854423523,-987,-1733,686,103082,2
73.28072571754456,-974,-1809,672,103211,2
73.32073593139648,-929,-1748,665,103272,2
73.36073327064514,-880,-1644,704,103326,2
73.40070295333862,-883,-1659,735,103356,2
73.4407148361206,-916,-1680,759,103173,2
73.48074579238892,-1066,-1696,657,103024,2
73.52071046829224,-1156,-1669,754,102919,2
73.56072068214417,-965,-1737,701,102875,2
73.6006932258606,-840,-1704,630,102899,2
73.6407220363617,-815,-1698,607,102920,2
73.68072533607483,-856,-1716,614,102924,2
73.72071099281311,-867,-1744,684,102902,2
73.76071977615356,-916,-1697,772,102912,2
73.79971647262573,-910,-1683,728,102926,2
73.83971333503723,-948,-1715,639,102915,2
73.87971425056458,-981,-1683,620,102923,2
73.91972517967224,-983,-1690,590,102946,2
73.95971179008484,-977,-1672,632,102949,2
73.99972796440125,-892,-1656,771,102903,2
74.03972387313843,-827,-1674,762,102608,2
74.07974410057068,-783,-1750,802,102272,2
74.11973214149475,-873,-1725,657,102080,2
74.15972137451172,-940,-1822,521,102056,2
74.1997344493866,-859,-1800,548,102080,2
74.23970055580139,-971,-1686,479,102140,2
74.27873492240906,-992,-1701,382,102176,2
74.31872177124023,-1055,-1624,373,102197,2
74.3587417602539,-1153,-1676,408,102209,2
74.39874601364136,-1142,-1796,423,102249,2
74.4387617111206,-1075,-1793,378,102268,2
74.4787380695343,-1124,-1686,529,102313,2
74.518728017807,-1009,-1671,764,102323,2
74.55881762504578,-1094,-1665,656,102294,2
74.59897470474243,-1133,-1615,542,102238,2
74.6387677192688,-380,-1717,881,101927,2
74.67877388000488,-791,-1857,440,101608,2
74.71877455711365,-1401,-1727,410,101533,2
74.75772356987,-1252,-1710,446,101524,2
74.79771041870117,-948,-1832,542,101567,2
74.8377251625061,-867,-1778,581,101638,2
74.87773895263672,-1062,-1746,351,101707,2
74.91778779029846,-1077,-1678,201,101785,2
74.95777082443237,-1022,-1517,258,101855,2
74.99809050559998,-895,-1592,424,101891,2
75.03776717185974,-820,-1740,467,101925,2
75.07772707939148,-915,-1851,425,101932,2
75.11777091026306,-971,-1860,389,101899,2
75.15777730941772,-901,-1838,432,101808,2
75.19801807403564,-846,-1856,575,101687,2
75.23805475234985,-837,-1839,710,101321,2
75.27679705619812,-853,-1868,772,100834,2
75.31677532196045,-891,-1700,1183,100688,2
75.35667085647583,-752,-1724,584,100701,2
75.39715480804443,-708,-1812,357,100752,2
75.43671154975891,-891,-1722,450,100728,2
75.4767746925354,-999,-1691,551,100578,2
75.51673412322998,-995,-1785,641,100320,2
75.55674958229065,-1075,-1820,607,100129,2
75.59676027297974,-1083,-1810,503,100124,2
75.63680148124695,-1000,-1815,395,100248,2
75.67797780036926,-903,-1737,377,100355,2
75.7167239189148,-859,-1700,459,100390,2
75.75578045845032,-788,-1472,1287,100809,2
75.79599237442017,-997,-1992,499,100618,2
75.83572459220886,-925,-2022,529,99222,2
75.87572932243347,-856,-1761,719,97744,2
75.91572904586792,-879,-1656,819,96988,2
75.95572590827942,-768,-1658,838,96602,2
75.9960527420044,-687,-1620,733,96571,2
76.03575444221497,-676,-1677,547,96971,2
76.07571530342102,-630,-1700,474,97524,2
76.1157329082489,-643,-1683,442,98109,2
76.15570998191833,-746,-1665,446,98620,2
76.19572949409485,-821,-1716,472,99007,2
76.23472952842712,-912,-1784,484,99163,2
76.27474164962769,-937,-1804,522,99153,2
76.31478548049927,-939,-1810,580,99084,2
76.35474967956543,-654,-1734,1222,99494,2
76.39471006393433,-778,-1812,755,99722,2
76.43471670150757,-720,-1829,636,99285,2
76.47477650642395,-759,-1824,673,98419,2
76.51479959487915,-760,-1801,730,97526,2
76.55483984947205,-816,-1717,668,96797,2
76.59477281570435,-745,-1696,693,96594,2
76.63485884666443,-836,-1710,721,96660,2
76.67477917671204,-821,-1720,710,96896,2
76.71476173400879,-844,-1709,681,97420,2
76.75380516052246,-880,-1732,715,98078,2
76.7937695980072,-848,-1744,750,98570,2
76.8337779045105,-855,-1748,705,98838,2
76.87374353408813,-821,-1747,713,98997,2
76.91375637054443,-835,-1744,711,99110,2
76.95373106002808,-839,-1701,678,99167,2
76.99374413490295,-861,-1707,686,99097,2
77.03398203849792,-854,-1720,675,98722,2
77.07378196716309,-842,-1735,664,98272,2
77.11376762390137,-874,-1718,673,98300,2
77.15375304222107,-867,-1735,667,98803,2
77.19374012947083,-853,-1729,701,99249,2
77.23289132118225,-836,-1708,694,99607,2
77.27273416519165,-894,-1725,690,99902,2
77.31277370452881,-897,-1714,676,100052,2
77.35280013084412,-940,-1696,680,100195,2
77.39275979995728,-848,-1733,682,100380,2
77.43290042877197,-839,-1751,653,100627,2
77.47283387184143,-852,-1739,690,100715,2
77.51275253295898,-893,-1714,729,100801,2
77.55279040336609,-874,-1704,717,100950,2
77.5927836894989,-876,-1696,703,101102,2
77.63291525840759,-902,-1696,674,101068,2
77.6727442741394,-899,-1697,657,101240,2
77.7127468585968,-861,-1709,665,101670,2
77.75177192687988,-848,-1692,640,102127,2
77.79185843467712,-926,-1692,621,102477,2
77.83183693885803,-978,-1735,647,102685,2
77.87175846099854,-946,-1748,700,102757,2
77.91175818443298,-920,-1774,573,102811,2
78.00737595558167,-797,-1744,592,102948,2
78.01330614089966,-788,-1729,722,103043,2
78.03332567214966,-737,-1775,640,103081,2
78.07184910774231,-801,-1798,671,103155,2
78.11178660392761,-850,-1802,731,103202,2
78.1517562866211,-830,-1824,739,103191,2
78.19177770614624,-759,-1785,688,103003,2
78.23178243637085,-749,-1753,706,102734,2
78.27084136009216,-776,-1740,673,102610,2
78.31075286865234,-828,-1734,694,102640,2
78.35077333450317,-849,-1772,706,102742,2
78.39081335067749,-847,-1790,706,102861,2
78.43076062202454,-850,-1771,708,102925,2
78.47075200080872,-812,-1763,661,102927,2
78.51077222824097,-812,-1725,648,102881,2
78.55079817771912,-816,-1714,644,102847,2
78.59077024459839,-789,-1726,638,102830,2
78.63086938858032,-785,-1755,665,102851,2
78.67091584205627,-786,-1772,681,102871,2
78.71076679229736,-777,-1746,682,102919,2
78.74978256225586,-804,-1744,680,102906,2
78.78975820541382,-802,-1751,702,102646,2
78.82977747917175,-825,-1745,712,102274,2
78.86974763870239,-832,-1753,706,102079,2
78.90977573394775,-799,-1748,721,102081,2
78.95008301734924,-796,-1756,702,102176,2
78.98977136611938,-794,-1753,692,102241,2
79.02974677085876,-807,-1753,700,102238,2
79.07045006752014,-811,-1739,685,102182,2
79.10977053642273,-792,-1751,685,102143,2
79.14978909492493,-797,-1756,686,102128,2
79.18977093696594,-798,-1764,689,102170,2
79.23001909255981,-825,-1744,697,102172,2
79.26912879943848,-832,-1733,693,102075,2
79.30875968933105,-801,-1740,686,102040,2
79.348801612854,-820,-1770,703,102006,2
79.38878393173218,-816,-1773,710,101798,2
79.42877101898193,-836,-1749,709,101456,2
79.46886992454529,-809,-1755,682,101308,2
79.50879335403442,-802,-1753,650,101274,2
79.54878234863281,-794,-1751,679,101310,2
79.58877563476562,-803,-1755,678,101352,2
79.62877893447876,-823,-1746,687,101400,2
79.6693012714386,-846,-1744,706,101405,2
79.70878481864929,-823,-1742,703,101422,2
79.74877977371216,-813,-1742,664,101443,2
79.78779006004333,-809,-1748,680,101482,2
79.8277735710144,-801,-1762,684,101520,2
79.86837863922119,-804,-1756,681,101532,2
79.90791320800781,-808,-1734,664,101566,2
79.94775295257568,-815,-1754,682,101574,2
79.98776721954346,-809,-1760,687,101496,2
80.0277726650238,-818,-1753,672,101216,2
80.06777572631836,-830,-1753,678,100955,2
80.10784959793091,-844,-1760,708,100833,2
80.14779353141785,-821,-1736,666,100862,2
80.18780636787415,-804,-1730,663,100925,2
80.22781205177307,-829,-1729,647,100973,2
80.26777148246765,-844,-1723,677,100983,2
80.30686068534851,-851,-1745,685,100957,2
80.34677529335022,-838,-1758,663,100918,2
80.38678097724915,-803,-1769,665,100927,2
80.42678189277649,-801,-1757,688,100930,2
80.46678853034973,-814,-1746,692,100955,2
80.50682234764099,-830,-1749,706,100951,2
80.54679083824158,-833,-1754,694,100841,2
80.58690309524536,-835,-1745,694,100625,2
80.62676930427551,-794,-1726,699,100135,2
80.66679644584656,-792,-1712,678,99648,2
80.70677328109741,-822,-1722,672,99328,2
80.74688506126404,-836,-1742,694,99156,2
80.78674983978271,-835,-1763,705,99119,2
80.82579755783081,-835,-1740,691,99097,2
80.86588168144226,-821,-1711,677,99016,2
80.90580463409424,-834,-1717,655,98933,2
80.94697761535645,-854,-1714,675,98880,2
80.98581290245056,-901,-1713,694,98862,2
81.02579712867737,-918,-1740,702,98950,2
81.06592082977295,-877,-1752,703,99063,2
81.10598230361938,-808,-1759,689,98956,2
81.14577913284302,-833,-1748,662,98786,2
81.18585300445557,-785,-1766,654,99133,2
81.2258312702179,-785,-1758,690,99341,2
81.26574063301086,-825,-1746,673,99145,2
81.30585265159607,-854,-1726,691,98834,2
81.34476518630981,-876,-1688,681,98628,2
81.3848443031311,-874,-1705,669,98577,2
81.42479038238525,-864,-1777,675,99037,2
81.46492147445679,-836,-1772,685,99833,2
81.50510287284851,-841,-1745,684,100395,2
81.54479837417603,-863,-1765,668,100887,2
81.5847864151001,-912,-1710,703,101258,2
81.62485980987549,-939,-1725,690,101476,2
81.66479182243347,-935,-1761,624,101520,2
81.70491862297058,-885,-1729,655,101525,2
81.74480199813843,-894,-1737,652,101451,2
81.78486776351929,-860,-1703,624,101288,2
81.82480025291443,-833,-1712,668,100555,2
81.8637809753418,-862,-1723,694,99317,2
81.90385270118713,-805,-1733,811,98667,2
81.94381499290466,-790,-1763,637,98126,2
81.98388481140137,-772,-1753,666,97874,2
82.02379751205444,-762,-1783,698,98009,2
82.06381058692932,-613,-1789,709,98266,2
82.104243516922,-690,-1740,719,98393,2
82.14377331733704,-715,-1756,718,98193,2
82.18377828598022,-752,-1767,632,97955,2
82.22379493713379,-821,-1747,673,97882,2
82.26379489898682,-854,-1763,713,97722,2
82.30377769470215,-852,-1784,639,97700,2
82.34379243850708,-846,-1726,655,97815,2
82.38278245925903,-836,-1747,687,97471,2
82.42306399345398,-842,-1783,627,96584,2
82.4628221988678,-796,-1771,652,95579,2
82.50279760360718,-827,-1745,679,94340,2
82.54280805587769,-820,-1759,670,93099,2
82.58282351493835,-832,-1792,665,92476,2
82.622798204422,-820,-1743,664,92298,2
82.66280937194824,-816,-1744,653,92388,2
82.70279908180237,-831,-1742,662,92287,2
82.74281120300293,-825,-1751,671,92010,2
82.7829201221466,-825,-1752,647,91786,2
82.82283353805542,-830,-1741,648,91715,2
82.86280107498169,-810,-1754,661,91729,2
82.90184211730957,-822,-1757,655,91826,2
82.94185876846313,-859,-1740,648,92017,2
82.98180103302002,-844,-1726,697,92178,2
83.021808385849,-855,-1751,645,92203,2
83.06178212165833,-834,-1741,670,91776,2
83.10179543495178,-853,-1741,666,91180,2
83.14204716682434,-853,-1741,658,90718,2
83.18178081512451,-832,-1742,659,90293,2
83.22181963920593,-846,-1757,641,90063,2
83.26179790496826,-838,-1752,635,90054,2
83.30183601379395,-838,-1747,665,90082,2
83.34242916107178,-841,-1748,674,90210,2
83.38178896903992,-854,-1737,672,90273,2
83.42079019546509,-865,-1741,663,90362,2
83.46078944206238,-838,-1750,674,90410,2
83.5007836818695,-839,-1743,671,90358,2
83.54108190536499,-852,-1751,666,90291,2
83.58085918426514,-849,-1719,670,90218,2
83.62085342407227,-850,-1737,654,90098,2
83.66079044342041,-820,-1766,652,89786,2
83.70081377029419,-826,-1747,671,89434,2
83.74105262756348,-847,-1744,664,89277,2
83.78083777427673,-828,-1747,675,89250,2
83.82080030441284,-838,-1745,665,89242,2
83.86080837249756,-847,-1747,670,89258,2
83.89983916282654,-839,-1740,679,89263,2
83.93987917900085,-845,-1739,663,89222,2
83.97984337806702,-850,-1742,665,89174,2
84.01985263824463,-834,-1738,665,89126,2
84.05986595153809,-839,-1756,666,89079,2
84.09986114501953,-833,-1751,670,89072,2
84.13980603218079,-837,-1741,669,89049,2
84.17981004714966,-853,-1749,664,88993,2
84.21984553337097,-814,-1713,686,88917,2
84.25980806350708,-850,-1764,651,88803,2
84.29984402656555,-831,-1767,675,88571,2
84.33987641334534,-850,-1732,696,88387,2
84.3798463344574,-837,-1731,668,88267,2
84.41887068748474,-820,-1741,670,88075,2
84.45882630348206,-812,-1749,667,87870,2
84.49884390830994,-840,-1758,671,87810,2
84.53892922401428,-834,-1754,676,87846,2
84.5788459777832,-851,-1731,681,87877,2
84.61881065368652,-823,-1742,662,87842,2
84.65889286994934,-829,-1748,708,87804,2
84.69884872436523,-801,-1750,692,87745,2
84.7388207912445,-787,-1762,671,87676,2
84.77880620956421,-832,-1748,653,87508,2
84.81884455680847,-897,-1724,645,87297,2
84.8588228225708,-796,-1727,682,87241,2
84.89880776405334,-811,-1758,631,87227,2
84.93781781196594,-817,-1760,644,87047,2
84.97792959213257,-885,-1698,707,86839,2
85.01781868934631,-924,-1675,658,86711,2
85.05782532691956,-930,-1718,668,86598,2
85.09782266616821,-842,-1778,690,86519,2
85.13780474662781,-773,-1780,720,86554,2
85.17806577682495,-717,-1775,703,86453,2
85.2179605960846,-846,-1757,573,85822,2
85.2578501701355,-903,-1737,524,84673,2
85.29786729812622,-902,-1715,578,83808,2
85.33781290054321,-874,-1693,645,83504,2
85.37784600257874,-885,-1700,694,83787,2
85.41780090332031,-792,-1793,751,85380,2
85.45684742927551,-856,-1723,728,89458,2
85.49684047698975,-789,-1699,826,93175,2
85.53685569763184,-951,-1702,663,94367,2
85.57722640037537,-1005,-1767,561,93608,2
85.61686134338379,-991,-1747,663,92605,2
85.65685844421387,-995,-1727,664,92514,2
85.6968936920166,-924,-1721,612,92990,2
85.736807346344,-849,-1711,655,93131,2
85.77690815925598,-826,-1742,618,92470,2
85.81684184074402,-782,-1780,601,91338,2
85.85686302185059,-835,-1751,544,90140,2
85.89692068099976,-918,-1703,574,89378,2
85.93682551383972,-977,-1694,604,88989,2
85.97586703300476,-991,-1672,676,89187,2
86.01624917984009,-942,-1687,748,89831,2
86.05652093887329,-893,-1715,695,90248,2
86.09581422805786,-857,-1718,677,90177,2
86.13579869270325,-849,-1701,669,89673,2
86.17585754394531,-855,-1722,657,88981,2
86.21582198143005,-860,-1729,618,88307,2
86.25586152076721,-853,-1733,629,87796,2
86.29588007926941,-862,-1734,649,87615,2
86.33581376075745,-891,-1724,732,87765,2
86.3758316040039,-898,-1716,707,87812,2
86.41588807106018,-903,-1732,688,87776,2
86.45585608482361,-911,-1737,660,87642,2
86.4948947429657,-906,-1731,672,87506,2
86.53486943244934,-894,-1721,655,87500,2
86.57497262954712,-808,-1695,685,87652,2
86.61484265327454,-887,-1719,647,87762,2
86.65488386154175,-879,-1736,681,87792,2
86.69494867324829,-896,-1733,692,87915,2
86.7348701953888,-899,-1733,666,88091,2
86.77502655982971,-911,-1721,679,88213,2
86.8155746459961,-910,-1689,658,88233,2
86.85491824150085,-893,-1664,629,88214,2
86.89486861228943,-857,-1737,637,88022,2
86.93487524986267,-869,-1736,688,87958,2
86.97484183311462,-962,-1678,665,88705,2
87.01381945610046,-910,-1648,678,90532,2
87.05431413650513,-914,-1730,659,94468,2
87.09389472007751,-860,-1785,548,98497,2
87.13387036323547,-837,-1735,746,99951,2
87.1738634109497,-872,-1744,696,100643,2
87.21443057060242,-902,-1715,647,101201,2
87.25387525558472,-906,-1693,642,101646,2
87.2938802242279,-939,-1734,617,102024,2
87.33389186859131,-912,-1762,613,102421,2
87.37385416030884,-882,-1747,611,102758,2
87.41401290893555,-861,-1730,605,102929,2
87.45387506484985,-894,-1747,569,103114,2
87.49390125274658,-850,-1749,682,103338,2
87.53391194343567,-797,-1758,686,103513,2
87.57284951210022,-914,-1723,535,103131,2
87.61342191696167,-899,-1718,540,102059,2
87.65284991264343,-980,-1698,547,101834,2
87.69288945198059,-960,-1766,581,101887,2
87.73286509513855,-933,-1799,660,101948,2
87.80428075790405,-902,-1761,654,102041,2
87.81646394729614,-967,-1743,513,102014,2
87.85285639762878,-855,-1726,564,101913,2
87.8928644657135,-724,-1740,680,101826,2
87.9328966140747,-879,-1724,579,101796,2
87.97290062904358,-829,-1731,642,101787,2
88.01287770271301,-942,-1761,561,101760,2
88.05296754837036,-932,-1721,647,101703,2
88.0918493270874,-938,-1725,590,101600,2
88.13185477256775,-925,-1749,582,101442,2
88.17190384864807,-849,-1776,611,101280,2
88.21232223510742,-710,-1758,693,101149,2
88.25183725357056,-868,-1731,682,101051,2
88.29187726974487,-897,-1784,665,100560,2
88.33193349838257,-910,-1736,699,99911,2
88.37184810638428,-915,-1724,638,99534,2
88.41189169883728,-852,-1730,692,99404,2
88.45197486877441,-863,-1734,672,99460,2
88.49193096160889,-1037,-1703,803,99676,2
88.53189754486084,-1269,-1657,936,99938,2
88.57191586494446,-1323,-1640,846,100054,2
88.61100316047668,-1317,-1542,786,100180,2
88.65093684196472,-1050,-1529,502,100196,2
88.69088339805603,-857,-1508,828,99735,2
88.7308886051178,-442,-1567,873,99411,2
88.77088689804077,-874,-1729,277,99482,2
88.810879945755,-1119,-1665,344,99129,2
88.85088419914246,-1087,-1682,467,98349,2
88.89091897010803,-1540,-1434,1016,97078,2
88.9309892654419,-1448,-1440,950,95537,2
88.97090339660645,-1655,-1487,846,94256,2
89.01086926460266,-1579,-1435,848,93121,2
89.0516266822815,-907,-1188,1557,92103,2
89.0908739566803,-605,-1156,900,91456,2
89.12996053695679,-720,-1073,788,91001,2
89.16986918449402,-1093,-1314,900,89942,2
89.2099723815918,-1351,-1548,966,88759,2
89.24989628791809,-1399,-1724,943,87938,2
89.2899100780487,-1248,-1449,862,87448,2
89.32988476753235,-1058,-1322,702,87471,2
89.36989331245422,-830,-1417,658,87442,2
89.40981817245483,-662,-1456,814,86940,2
89.45000839233398,-789,-1582,815,87048,2
89.4898636341095,-886,-1628,647,87421,2
89.52990221977234,-986,-1717,589,88146,2
89.56985473632812,-1373,-1656,527,89291,2
89.60988473892212,-1396,-1579,639,89633,2
89.65012097358704,-1376,-1541,775,89082,2
89.68887090682983,-1321,-1539,797,88186,2
89.72892236709595,-1245,-1567,773,87125,2
89.76893377304077,-1178,-1605,760,86126,2
89.80920386314392,-1229,-1592,701,85676,2
89.84889507293701,-1250,-1530,648,85597,2
89.88892364501953,-1164,-1538,540,85860,2
89.92888355255127,-1148,-1539,419,86130,2
89.96891689300537,-1185,-1578,397,86311,2
90.00884819030762,-1245,-1689,341,86521,2
90.04886555671692,-1301,-1752,384,86305,2
90.08888578414917,-1334,-1752,395,86500,2
90.1289222240448,-1267,-1709,307,87179,2
90.1689145565033,-1206,-1831,224,88632,2
90.20891213417053,-1098,-1896,147,90898,2
90.2481300830841,-1102,-1928,179,92946,2
90.2879147529602,-1048,-1924,223,94092,2
90.32789754867554,-965,-1843,209,95231,2
90.36793065071106,-904,-1786,204,96678,2
90.40798664093018,-825,-1835,173,98306,2
90.44800424575806,-571,-1827,172,99409,2
90.48786783218384,-627,-1898,190,99984,2
90.52795195579529,-999,-1896,482,100026,2
90.5678641796112,-915,-1931,474,100006,2
90.60785555839539,-835,-1883,340,100070,2
90.64788174629211,-880,-1749,320,100121,2
90.68791198730469,-754,-1771,291,100225,2
90.72789764404297,-973,-1747,303,100262,2
90.76697587966919,-1353,-1768,310,100168,2
90.80686640739441,-1510,-1603,590,99898,2
90.846914768219,-1514,-1569,606,99606,2
90.88697957992554,-1372,-1565,458,99470,2
90.92692518234253,-1330,-1618,258,99101,2
90.96692276000977,-1150,-1596,313,98053,2
91.00694966316223,-1028,-1642,394,96666,2
91.04704213142395,-899,-1954,244,95895,2
91.08701944351196,-785,-1962,293,94928,2
91.12687611579895,-689,-1884,487,93790,2
91.16717147827148,-741,-1769,486,93538,2
91.20688652992249,-808,-1798,253,94343,2
91.2468843460083,-894,-1736,76,95356,2
91.28686833381653,-1015,-1837,-20,96069,2
91.32598900794983,-1053,-1813,-27,96164,2
91.36588430404663,-911,-1742,38,95941,2
91.40592408180237,-1016,-1862,-13,95662,2
91.44585704803467,-908,-1932,-14,94713,2
91.4861261844635,-717,-1889,269,93062,2
91.52593064308167,-995,-1867,372,91845,2
91.56598162651062,-1377,-1922,289,91093,2
91.6059238910675,-1330,-1661,170,90886,2
91.64587426185608,-1145,-1676,321,90628,2
91.68593502044678,-1026,-1558,461,90535,2
91.72592091560364,-971,-1624,344,90329,2
91.76594233512878,-966,-1821,158,89766,2
91.80613446235657,-971,-1856,231,88783,2
91.84489274024963,-875,-1829,299,87808,2
91.88492703437805,-719,-1927,135,87280,2
91.92493057250977,-520,-2038,63,87242,2
91.96492743492126,-626,-2097,10,87414,2
92.00490307807922,-968,-2018,52,87230,2
92.04488468170166,-951,-1846,136,86920,2
92.084890127182,-769,-1879,272,86523,2
92.12497687339783,-870,-1704,555,86110,2
92.16490817070007,-1079,-1575,616,85514,2
92.2049012184143,-1114,-1750,504,85569,2
92.24491381645203,-884,-1778,291,85858,2
92.2848687171936,-750,-1900,211,85877,2
92.32489681243896,-865,-1738,250,86016,2
92.36489486694336,-1004,-1741,230,86195,2
92.40394639968872,-1129,-1826,138,86491,2
92.44390153884888,-1244,-1710,177,86369,2
92.48393845558167,-1106,-1771,343,86166,2
92.52391242980957,-1048,-1628,416,86168,2
92.56391501426697,-1025,-1603,331,86110,2
92.60394024848938,-802,-1926,298,86323,2
92.64392066001892,-653,-1881,240,86479,2
92.6838903427124,-654,-1938,267,86412,2
92.72398471832275,-1058,-1867,308,86202,2
92.76394557952881,-1073,-1837,185,85916,2
92.80425906181335,-1114,-1748,237,85615,2
92.84396052360535,-1109,-1678,389,85663,2
92.88396430015564,-1097,-1679,396,85832,2
92.92435669898987,-1054,-1768,353,85897,2
92.96314430236816,-976,-1799,401,85708,2
93.00293278694153,-943,-1825,392,85623,2
93.04290533065796,-891,-1934,198,85870,2
93.08291864395142,-649,-1875,169,86052,2
93.12310981750488,-856,-1875,228,86111,2
93.16290068626404,-948,-1676,331,86131,2
93.20301938056946,-1029,-1666,367,86175,2
93.24289631843567,-1031,-1735,415,86138,2
93.2828631401062,-1030,-1721,466,86035,2
93.32295417785645,-1089,-1742,381,85701,2
93.36292576789856,-1116,-1769,292,85291,2
93.40297365188599,-1127,-1746,305,85095,2
93.44293355941772,-1138,-1716,359,85091,2
93.48191332817078,-1072,-1686,330,85146,2
93.52228426933289,-919,-1741,303,85232,2
93.5619101524353,-968,-1752,316,85369,2
93.6019332408905,-1003,-1778,360,85318,2
93.64192271232605,-905,-1841,360,85357,2
93.6819396018982,-825,-1862,257,85420,2
93.72207903862,-811,-1905,438,85318,2
93.76189351081848,-836,-1804,318,85604,2
93.80188775062561,-920,-1782,249,85676,2
93.84188199043274,-964,-1719,380,85620,2
93.88188552856445,-972,-1745,448,85453,2
93.92193078994751,-1074,-1724,423,85086,2
93.96195411682129,-1118,-1733,352,84854,2
94.00093913078308,-1053,-1775,306,84695,2
94.04093289375305,-1017,-1750,318,84627,2
94.08087587356567,-1054,-1719,275,84698,2
94.12139868736267,-1057,-1703,331,84725,2
94.1609218120575,-1039,-1713,393,84701,2
94.20093321800232,-981,-1735,396,84700,2
94.2409999370575,-944,-1729,389,84669,2
94.28086161613464,-1007,-1775,310,84853,2
94.3209433555603,-1010,-1787,276,84793,2
94.36091423034668,-1014,-1749,342,84782,2
94.40094113349915,-991,-1748,347,84729,2
94.44104671478271,-1023,-1734,387,84718,2
94.48089361190796,-999,-1750,375,84740,2
94.52097153663635,-968,-1727,385,84721,2
94.55997610092163,-1006,-1736,355,84432,2
94.59999752044678,-1029,-1747,369,84164,2
94.6401777267456,-1037,-1746,358,84103,2
94.68005514144897,-1000,-1755,357,84236,2
94.71991348266602,-1000,-1743,317,84476,2
94.75995397567749,-1029,-1719,340,84718,2
94.79997253417969,-1064,-1714,351,84868,2
94.84019589424133,-1016,-1727,378,84863,2
94.8799159526825,-978,-1763,338,85008,2
94.91991901397705,-1005,-1750,332,85344,2
94.96010541915894,-1026,-1733,311,85885,2
94.99992322921753,-1014,-1731,325,87030,2
95.03993368148804,-1060,-1723,293,88938,2
95.07896614074707,-1073,-1755,287,90192,2
95.11891055107117,-1008,-1762,314,90979,2
95.1591649055481,-1038,-1765,320,91443,2
95.19905233383179,-1011,-1733,308,91440,2
95.2391905784607,-1066,-1740,250,91559,2
95.27895283699036,-1055,-1735,246,91895,2
95.31904101371765,-1070,-1742,257,91718,2
95.35913157463074,-1051,-1731,250,91347,2
95.39897012710571,-1031,-1759,248,91056,2
95.43893504142761,-1025,-1757,243,90949,2
95.47898721694946,-1034,-1759,263,91201,2
95.51890563964844,-986,-1754,293,92831,2
95.55945682525635,-1086,-1765,229,96306,2
95.59900426864624,-1039,-1736,185,97881,2
95.63797044754028,-984,-1711,271,98676,2
95.6779420375824,-1066,-1680,178,99388,2
95.71802830696106,-1228,-1828,-19,100122,2
95.7581844329834,-1047,-1769,124,100671,2
95.79794645309448,-1092,-1709,339,100927,2
95.83796191215515,-1135,-1687,282,100236,2
95.87795305252075,-1140,-1752,91,99511,2
95.91792631149292,-1072,-1742,43,99164,2
95.95792627334595,-1045,-1742,91,99058,2
95.99799633026123,-1057,-1716,160,99010,2
96.03794002532959,-1091,-1724,136,98940,2
96.07792901992798,-1086,-1711,147,98732,2
96.11793947219849,-1120,-1712,156,98432,2
96.1569197177887,-1119,-1704,160,98073,2
96.19696998596191,-1107,-1712,137,97743,2
96.23696517944336,-1085,-1727,109,97222,2
96.27691912651062,-1066,-1742,120,96765,2
96.31695914268494,-1058,-1756,132,96336,2
96.35695242881775,-1059,-1764,141,95980,2
96.39696884155273,-1047,-1749,141,95594,2
96.43697738647461,-1063,-1750,151,95204,2
96.47694420814514,-1075,-1712,131,94898,2
96.51698064804077,-1053,-1725,119,94496,2
96.55697822570801,-1050,-1757,112,93774,2
96.59710478782654,-1057,-1777,133,92972,2
96.63696312904358,-1081,-1750,170,92306,2
96.67693543434143,-1069,-1755,192,91971,2
96.71691179275513,-1077,-1729,181,91699,2
96.7559609413147,-1086,-1738,147,91716,2
96.79599690437317,-1080,-1727,130,91879,2
96.83596682548523,-1053,-1739,119,92010,2
96.87596654891968,-1062,-1742,111,92028,2
96.91598892211914,-1071,-1736,141,92200,2
96.95593881607056,-1078,-1721,168,92434,2
96.99607491493225,-1094,-1716,162,92553,2
97.03593397140503,-1091,-1730,177,92735,2
97.07598400115967,-1111,-1718,173,92854,2
97.11596846580505,-1093,-1724,163,92811,2
97.15599465370178,-1082,-1735,136,92815,2
97.19622993469238,-1069,-1731,147,92927,2
97.23626041412354,-1089,-1729,147,92932,2
97.27595281600952,-1076,-1732,148,92434,2
97.31495833396912,-1090,-1742,147,92064,2
97.3549451828003,-1115,-1724,171,92171,2
97.39553451538086,-1115,-1735,202,92382,2
97.43498015403748,-1103,-1739,183,92640,2
97.47495698928833,-1090,-1742,174,92826,2
97.5149462223053,-1111,-1757,147,92655,2
97.55494666099548,-1108,-1796,175,91884,2
97.59495973587036,-1183,-1731,139,90133,2
97.6349515914917,-1072,-1728,269,88761,2
97.67494559288025,-1077,-1712,247,88659,2
97.7149543762207,-1077,-1676,241,89104,2
97.75494194030762,-1045,-1683,230,90025,2
97.8396315574646,-1063,-1703,164,91316,2
97.84056043624878,-1080,-1699,155,92293,2
97.87394952774048,-1073,-1703,143,93328,2
97.91392683982849,-1160,-1700,167,94206,2
97.95397520065308,-1195,-1646,203,94971,2
97.9940128326416,-1060,-1706,107,95132,2
98.03400206565857,-1072,-1672,101,95335,2
98.0740761756897,-1015,-1659,69,96124,2
98.11393141746521,-1100,-1667,59,96773,2
98.15398454666138,-1225,-1689,96,96779,2
98.1939697265625,-1294,-1722,221,96282,2
98.23399305343628,-1248,-1767,387,95645,2
98.27397108078003,-1093,-1841,358,95242,2
98.31397891044617,-1053,-1881,187,94966,2
98.35394859313965,-1069,-1743,202,94700,2
98.39393401145935,-937,-1625,243,94648,2
98.43299698829651,-984,-1521,207,94936,2
98.47296786308289,-1066,-1616,147,95474,2
98.51296401023865,-1125,-1724,65,95857,2
98.55294299125671,-1173,-1800,77,95870,2
98.59294581413269,-1183,-1807,57,95840,2
98.63302087783813,-1188,-1688,66,95647,2
98.67298078536987,-1167,-1576,210,95327,2
98.71296548843384,-1204,-1486,311,94716,2
98.7529649734497,-1182,-1602,364,93994,2
98.7929847240448,-1182,-1830,341,93421,2
98.83316826820374,-1205,-1906,175,93360,2
98.87302827835083,-1184,-1784,121,93200,2
98.91300392150879,-1175,-1689,180,92985,2
98.95301103591919,-1127,-1658,209,92996,2
98.99299955368042,-1063,-1626,246,93097,2
99.03213882446289,-1005,-1651,236,93307,2
99.07200145721436,-937,-1750,207,93577,2
99.11197566986084,-928,-1804,162,93840,2
99.15199089050293,-1013,-1764,166,93814,2
99.19197821617126,-1132,-1731,180,93662,2
99.23197507858276,-1188,-1722,183,93637,2
99.2719976902008,-1238,-1699,142,93703,2
99.31205201148987,-1227,-1651,111,93627,2
99.35203051567078,-1184,-1637,118,93406,2
99.39193964004517,-1126,-1652,120,93302,2
99.43196249008179,-1126,-1662,125,93001,2
99.47210621833801,-1167,-1696,124,92803,2
99.51200604438782,-1183,-1763,102,92758,2
99.55200529098511,-1131,-1768,96,92785,2
99.59201335906982,-1017,-1733,243,92762,2
99.63123059272766,-995,-1743,213,93135,2
99.67095947265625,-1064,-1686,170,93237,2
99.71095824241638,-1158,-1691,165,93075,2
99.75096702575684,-1210,-1634,132,93116,2
99.79102945327759,-1178,-1478,130,93202,2
99.8309874534607,-1150,-1432,136,93605,2
99.87100052833557,-1225,-1638,42,94135,2
99.91098713874817,-1240,-1772,-26,94652,2
99.95097947120667,-1264,-1810,-70,94882,2
99.9909827709198,-1224,-1813,-68,94932,2
100.03098797798157,-1158,-1753,64,94841,2
100.07103991508484,-1084,-1729,145,94822,2
100.11103439331055,-1092,-1711,227,94388,2
100.15096426010132,-1149,-1705,270,93655,2
100.18999528884888,-1213,-1712,200,93233,2
100.22997546195984,-1214,-1733,131,93237,2
100.26996612548828,-1165,-1602,135,93384,2
100.31000328063965,-1158,-1713,-11,93805,2
100.34999132156372,-1119,-1706,-60,94146,2
100.390065908432,-1119,-1707,-69,94285,2
100.43032240867615,-1092,-1722,-67,94379,2
100.4702398777008,-1110,-1732,-10,94354,2
100.51007390022278,-1135,-1692,-1,94358,2
100.55003476142883,-1007,-1626,104,94355,2
100.58995985984802,-973,-1642,240,94351,2
100.63002395629883,-1023,-1777,234,94326,2
100.67010807991028,-1204,-1784,114,94572,2
100.71020936965942,-1331,-1624,10,94789,2
100.7501323223114,-1269,-1599,65,94246,2
100.78902530670166,-1232,-1756,188,93371,2
100.82901430130005,-1297,-1819,48,93558,2
100.86927676200867,-1261,-1877,-132,94119,2
100.90904402732849,-1071,-1675,-171,94664,2
100.94906783103943,-821,-1460,110,94938,2
100.9896912574768,-766,-1535,300,95162,2
101.02900671958923,-1001,-1771,339,95107,2
101.06902503967285,-1250,-1863,256,94766,2
101.10902810096741,-1444,-1840,121,94242,2
101.1489622592926,-1300,-1742,48,93892,2
101.1890823841095,-1174,-1698,-12,94024,2
101.22902488708496,-1116,-1693,-20,94032,2
101.26905131340027,-1086,-1645,98,94076,2
101.30802512168884,-1144,-1670,123,94511,2
101.34800791740417,-1200,-1789,29,94898,2
101.38802242279053,-1197,-1742,-11,94819,2
101.42807602882385,-1167,-1537,132,94594,2
101.4681990146637,-1035,-1535,234,94052,2
101.50802564620972,-968,-1639,169,93095,2
101.54802370071411,-1039,-1738,142,92245,2
101.58799242973328,-1146,-1816,141,91523,2
101.62803053855896,-1206,-1806,124,91117,2
101.66795182228088,-1133,-1804,48,91097,2
101.70799160003662,-1054,-1780,32,91071,2
101.74806880950928,-967,-1735,106,90835,2
101.78801012039185,-985,-1701,136,90611,2
101.82801556587219,-1059,-1668,122,90060,2
101.86701393127441,-1081,-1684,140,89297,2
101.90702795982361,-1145,-1682,201,89115,2
101.94700598716736,-1335,-1640,197,89131,2
101.98701882362366,-1231,-1698,181,89195,2
102.02700543403625,-1149,-1761,133,89278,2
102.06697034835815,-1066,-1742,112,89420,2
102.10702276229858,-1033,-1707,119,89686,2
102.14718079566956,-1059,-1695,154,89940,2
102.18697881698608,-1125,-1693,143,89806,2
102.22711396217346,-1183,-1695,136,89504,2
102.26700329780579,-1218,-1676,156,89522,2
102.30748987197876,-1199,-1696,160,89664,2
102.34706616401672,-1171,-1674,155,89913,2
102.38701486587524,-1170,-1675,125,90065,2
102.42600274085999,-1108,-1713,118,90165,2
102.46600699424744,-1115,-1713,133,90020,2
102.506112575531,-1109,-1713,131,89886,2
102.54600119590759,-1117,-1709,131,89902,2
102.58605551719666,-1119,-1713,133,89986,2
102.62605333328247,-1123,-1720,125,90138,2
102.66602087020874,-1131,-1709,136,90225,2
102.70605969429016,-1132,-1691,137,90415,2
102.74646520614624,-1150,-1693,140,90540,2
102.78613209724426,-1153,-1699,132,90668,2
102.82603573799133,-1155,-1674,140,90783,2
102.86606979370117,-1146,-1691,154,90783,2
102.9062659740448,-1137,-1703,136,90374,2
102.94616627693176,-1146,-1685,124,90015,2
102.98508095741272,-1167,-1686,133,89965,2
103.02503967285156,-1151,-1700,155,90112,2
103.06501293182373,-1129,-1689,127,90227,2
103.10512518882751,-1098,-1700,129,90363,2
103.14509344100952,-1144,-1692,125,90498,2
103.18503308296204,-1148,-1687,131,90583,2
103.22504186630249,-1148,-1689,131,90582,2
103.26503872871399,-1144,-1690,125,90588,2
103.30500054359436,-1131,-1708,114,90541,2
103.34504580497742,-1125,-1704,126,90416,2
103.38510203361511,-1130,-1706,120,90317,2
103.42510843276978,-1123,-1714,105,90173,2
103.46500658988953,-1119,-1699,122,90055,2
103.50501370429993,-1118,-1711,137,89843,2
103.54401326179504,-1118,-1700,118,89583,2
103.58404874801636,-1115,-1703,133,89232,2
103.62402367591858,-1125,-1724,126,88737,2
103.66404867172241,-1135,-1721,126,87939,2
103.70401453971863,-1154,-1698,132,87436,2
103.74448084831238,-1161,-1689,148,87288,2
103.78403234481812,-1147,-1697,152,87350,2
103.82399940490723,-1128,-1699,123,87489,2
103.86404418945312,-1131,-1723,111,87653,2
103.90400624275208,-1129,-1719,122,87642,2
103.9452600479126,-1143,-1692,142,87576,2
103.98403739929199,-1203,-1730,130,87541,2
104.02400803565979,-1091,-1715,117,87354,2
104.06401586532593,-1081,-1741,117,87145,2
104.10298562049866,-1095,-1735,129,87179,2
104.14304518699646,-1113,-1748,121,87379,2
104.18314099311829,-1091,-1697,117,87675,2
104.22301983833313,-1099,-1739,85,88054,2
104.26303672790527,-1070,-1740,44,88390,2
104.30298662185669,-1046,-1715,61,88568,2
104.34387755393982,-1085,-1717,80,88688,2
104.38299536705017,-1095,-1737,77,88345,2
104.42304372787476,-1122,-1746,64,88002,2
104.46299886703491,-1087,-1750,77,87730,2
104.50305509567261,-1100,-1733,85,87630,2
104.5432984828949,-1087,-1714,106,87599,2
104.58302807807922,-1111,-1696,57,87131,2
104.62299370765686,-1133,-1710,87,86028,2
104.66216135025024,-1114,-1692,112,85366,2
104.70197057723999,-1120,-1705,82,85236,2
104.742116689682,-1089,-1710,91,85391,2
104.7820737361908,-1084,-1733,101,85627,2
104.82205033302307,-1096,-1749,91,85840,2
104.86205124855042,-1135,-1797,-98,86397,2
104.9020631313324,-1053,-1835,-337,85742,2
104.94201993942261,-1004,-1751,-48,84754,2
104.98276424407959,-1059,-1641,332,84732,2
105.02203345298767,-1150,-1699,65,85620,2
105.0620846748352,-1120,-1714,-137,86105,2
105.10205602645874,-1148,-1736,-97,86123,2
105.14203381538391,-1093,-1754,-55,86333,2
105.18206715583801,-1028,-1793,-101,87205,2
105.2210202217102,-1011,-1775,-192,87844,2
105.26155066490173,-1027,-1752,-159,87783,2
105.30100083351135,-1079,-1715,-60,87805,2
105.34101963043213,-1138,-1686,15,87892,2
105.38111400604248,-1152,-1731,-33,88095,2
105.4210615158081,-1155,-1729,-105,88696,2
105.46115112304688,-1104,-1714,-85,89159,2
105.50102257728577,-1082,-1735,-64,89638,2
105.54100942611694,-1069,-1738,-81,89927,2
105.58103346824646,-1080,-1739,-83,89919,2
105.62111520767212,-1083,-1745,-79,89833,2
105.66103315353394,-1106,-1748,-67,89702,2
105.7010190486908,-1071,-1742,-63,89754,2
105.74107456207275,-1045,-1746,-72,89782,2
105.780020236969,-1055,-1816,-54,89729,2
105.8200249671936,-1045,-1856,-52,89687,2
105.86004161834717,-1090,-1861,-46,89655,2
105.90001893043518,-1052,-1823,37,89346,2
105.93998265266418,-987,-1799,77,88841,2
105.98009872436523,-1017,-1779,48,88366,2
106.02000570297241,-994,-1737,46,87568,2
106.05999445915222,-998,-1648,91,86737,2
106.1000702381134,-1051,-1745,109,86688,2
106.14006400108337,-1120,-1892,-90,87040,2
106.18022751808167,-1009,-1877,-159,87287,2
106.22013092041016,-966,-1782,-171,87312,2
106.2600610256195,-1001,-1662,1,87017,2
106.30008268356323,-1094,-1742,213,86485,2
106.34002900123596,-1195,-1747,246,86270,2
106.37961173057556,-1251,-1733,66,86470,2
106.41914987564087,-1140,-1833,-26,86786,2
106.45901417732239,-990,-1885,6,86757,2
106.49899816513062,-968,-1826,81,86492,2
106.53902888298035,-1008,-1846,178,86058,2
106.57902264595032,-1067,-1806,206,85848,2
106.6190824508667,-1120,-1783,174,85391,2
106.65906238555908,-1051,-1922,220,85075,2
106.69909048080444,-804,-1967,135,85026,2
106.73901772499084,-687,-1836,58,85283,2
106.77902150154114,-685,-1725,75,85577,2
106.81902432441711,-655,-1699,182,85581,2
106.85907649993896,-812,-1657,290,85181,2
106.89904046058655,-1104,-1655,409,84702,2
106.93905115127563,-1321,-1759,342,84460,2
106.97808384895325,-1574,-1738,216,84234,2
107.0180242061615,-1703,-1706,192,83829,2
107.0580780506134,-1381,-1716,353,83418,2
107.09798741340637,-825,-1421,558,83318,2
107.1380615234375,90,-1388,2276,85525,2
107.17805075645447,-348,-1705,927,86022,2
107.21818566322327,-1073,-1669,516,85736,2
107.25804686546326,-1239,-1627,220,85482,2
107.29806423187256,-1049,-1598,399,85749,2
107.33806371688843,-1051,-1580,978,87572,2
107.37805080413818,-1223,-1588,738,89869,2
107.41858315467834,-1115,-1449,697,91554,2
107.45807886123657,-1043,-1567,781,90357,2
107.49806046485901,-961,-1838,1001,87670,2
107.53809452056885,-1290,-1712,804,86890,2
107.57728433609009,-1413,-1598,565,86401,2
107.61707425117493,-1052,-1701,423,85573,2
107.65708541870117,-938,-1833,360,84761,2
107.69722723960876,-945,-1687,391,84963,2
107.7370617389679,-1043,-1507,447,85940,2
107.77708315849304,-1104,-1546,564,87100,2
107.81755590438843,-963,-1684,649,88486,2
107.85739254951477,-1043,-1698,536,88862,2
107.89715051651001,-1085,-1694,768,88559,2
107.93738579750061,-1011,-1673,752,88444,2
107.9770655632019,-963,-1667,833,88819,2
108.01770281791687,-950,-1664,792,89058,2
108.05708527565002,-996,-1735,674,88607,2
108.0970983505249,-980,-1694,521,87559,2
108.13603568077087,-975,-1675,481,86730,2
108.17606973648071,-976,-1696,479,86192,2
108.21654272079468,-941,-1692,472,85749,2
108.25614881515503,-935,-1649,486,85831,2
108.29610419273376,-924,-1691,559,86653,2
108.33606100082397,-889,-1770,716,87958,2
108.37607336044312,-969,-1726,712,89644,2
108.41636085510254,-1048,-1707,644,91272,2
108.45607709884644,-1059,-1715,633,92670,2
108.49609756469727,-1033,-1683,597,93353,2
108.53607535362244,-978,-1742,593,93634,2
108.57608437538147,-1001,-1710,532,94100,2
108.61633849143982,-1082,-1733,564,94964,2
108.65611290931702,-1030,-1725,653,95782,2
108.6950786113739,-997,-1697,590,96393,2
108.73526644706726,-963,-1701,533,97025,2
108.77509045600891,-1017,-1694,575,97794,2
108.81506657600403,-1007,-1681,568,98315,2
108.85546541213989,-991,-1692,576,98742,2
108.89508175849915,-992,-1694,588,99298,2
108.93508076667786,-966,-1691,572,99504,2
108.97519707679749,-971,-1692,599,98981,2
109.01506638526917,-1009,-1679,569,98409,2
109.0550742149353,-995,-1699,576,98269,2
109.095059633255,-1012,-1710,568,98332,2
109.1350769996643,-996,-1687,561,98232,2
109.17525315284729,-1029,-1656,525,97869,2
109.21506834030151,-990,-1687,549,97415,2
109.25409650802612,-1014,-1687,543,97235,2
109.29408168792725,-1079,-1733,531,97188,2
109.33413362503052,-1113,-1712,573,96987,2
109.37427163124084,-1132,-1726,510,96752,2
109.41408801078796,-985,-1706,538,96730,2
109.45408916473389,-977,-1614,546,96896,2
109.49406433105469,-929,-1545,553,97093,2
109.53420758247375,-924,-1593,564,97304,2
109.57422232627869,-900,-1771,696,97607,2
109.61406636238098,-938,-1837,695,97830,2
109.65434265136719,-982,-1793,677,97812,2
109.69408965110779,-977,-1772,555,97378,2
109.73413419723511,-902,-1731,327,95911,2
109.77410292625427,-1022,-1553,482,93624,2
109.81404280662537,-1151,-1473,550,92617,2
109.85360860824585,-1217,-1648,435,92402,2
109.89308333396912,-1127,-1774,385,92403,2
109.93307685852051,-1045,-1790,373,92569,2
109.97306656837463,-972,-1629,646,92751,2
110.01311373710632,-1031,-1631,492,92628,2
110.05315041542053,-1086,-1672,458,91985,2
110.09351682662964,-1046,-1737,390,91167,2
110.13308882713318,-959,-1706,525,90774,2
110.17324304580688,-980,-1672,554,91024,2
110.21312046051025,-1008,-1706,563,91651,2
110.25335717201233,-1036,-1680,609,92022,2
110.29307794570923,-1089,-1729,678,91942,2
110.33305406570435,-1159,-1815,635,91459,2
110.37311244010925,-1037,-1700,333,90811,2
110.41208457946777,-978,-1638,363,89614,2
110.45261931419373,-1021,-1678,430,88130,2
110.49208903312683,-1038,-1749,353,87321,2
110.53225040435791,-1036,-1745,339,87339,2
110.57213354110718,-1017,-1727,509,87731,2
110.61206817626953,-1065,-1677,584,88298,2
110.65251660346985,-1058,-1678,478,88645,2
110.69231128692627,-1092,-1634,453,88346,2
110.73209404945374,-1118,-1648,444,87714,2
110.77237963676453,-1092,-1720,331,87197,2
110.81216168403625,-1027,-1654,306,86881,2
110.85209679603577,-989,-1640,324,86861,2
110.89305973052979,-943,-1735,367,87113,2
110.9323058128357,-948,-1751,625,87497,2
110.97237873077393,-1059,-1782,590,87816,2
111.01110482215881,-1089,-1773,476,88178,2
111.05109143257141,-1071,-1692,448,88353,2
111.09111714363098,-1021,-1681,422,88304,2
111.13114094734192,-1066,-1702,405,88289,2
111.17112946510315,-1070,-1700,371,88273,2
111.21116590499878,-1043,-1697,458,88087,2
111.2512800693512,-1051,-1717,462,88042,2
111.29141879081726,-1020,-1740,462,87929,2
111.33110022544861,-1036,-1718,429,87823,2
111.3710994720459,-1049,-1720,435,87699,2
111.41113471984863,-1066,-1708,424,87568,2
111.45158839225769,-1056,-1691,421,87454,2
111.49119353294373,-1037,-1683,446,87335,2
111.53118419647217,-1008,-1718,464,87187,2
111.57111930847168,-1003,-1755,456,87169,2
111.61007690429688,-1046,-1774,449,87030,2
111.6501259803772,-1057,-1778,502,86677,2
111.69057106971741,-1016,-1735,495,86268,2
111.73014307022095,-987,-1683,398,86163,2
111.77007246017456,-927,-1679,405,86115,2
111.81010794639587,-970,-1712,455,86062,2
111.85013222694397,-1027,-1708,453,85841,2
111.89061856269836,-1036,-1702,458,85639,2
111.93111848831177,-1035,-1711,471,85595,2
111.97009515762329,-1001,-1719,463,85598,2
112.0100908279419,-977,-1727,458,85691,2
112.05009484291077,-996,-1735,470,85643,2
112.0902624130249,-972,-1742,472,85575,2
112.13015222549438,-995,-1740,461,85549,2
112.16908359527588,-982,-1742,472,85631,2
112.20914006233215,-993,-1708,470,85751,2
112.24909234046936,-990,-1720,471,85837,2
112.28907561302185,-993,-1729,464,85894,2
112.32935762405396,-1000,-1735,487,85930,2
112.3691053390503,-989,-1728,473,85955,2
112.40909433364868,-989,-1724,463,86021,2
112.44916105270386,-985,-1729,459,86047,2
112.48916554450989,-993,-1726,463,86000,2
112.52908539772034,-991,-1719,455,85720,2
112.56915283203125,-989,-1722,472,85448,2
112.60916924476624,-1003,-1722,465,85432,2
112.64951205253601,-995,-1724,471,85506,2
112.689208984375,-1001,-1730,461,85594,2
112.72920513153076,-995,-1741,473,85642,2
112.76820588111877,-994,-1738,460,85693,2
112.80815148353577,-1012,-1726,461,85655,2
112.84811520576477,-1001,-1717,455,85588,2
112.88806962966919,-992,-1724,453,85629,2
112.92815256118774,-993,-1723,451,85625,2
112.96810340881348,-992,-1727,474,85647,2
113.00820088386536,-991,-1731,468,85689,2
113.04818272590637,-1000,-1732,462,85759,2
113.08812379837036,-996,-1716,460,85791,2
113.12857389450073,-1007,-1699,450,85769,2
113.1681079864502,-987,-1745,441,85813,2
113.20809388160706,-996,-1734,466,85600,2
113.2481644153595,-977,-1723,455,85339,2
113.28808999061584,-996,-1718,445,85229,2
113.32739114761353,-981,-1728,466,85255,2
