Timestamp,AccX,AccY,AccZ,Heart_IR,Phase
0.0075473785400390625,-944,-1415,1123,113241,0
0.047612667083740234,-915,-1429,1126,113582,0
0.08737421035766602,-915,-1427,1125,113921,0
0.1274886131286621,-927,-1428,1123,114253,0
0.16737008094787598,-916,-1428,1130,114593,0
0.20736932754516602,-900,-1435,1094,114834,0
0.24734020233154297,-904,-1426,1099,114445,0
0.2873198986053467,-894,-1411,1110,114061,0
0.32734251022338867,-865,-1425,1122,114079,0
0.36734867095947266,-938,-1420,1150,114187,0
0.40732622146606445,-945,-1435,1137,114284,0
0.44677305221557617,-951,-1424,1150,114273,0
0.4863400459289551,-969,-1443,1126,114172,0
0.5263800621032715,-1026,-1434,1143,113998,0
0.5664443969726562,-1124,-1441,1215,113870,0
0.6063549518585205,-1429,-1522,1281,113822,0
0.6464190483093262,-2223,-1532,1577,113810,0
0.6864194869995117,-1845,-1535,1467,113793,0
0.7263786792755127,-1551,-1447,1427,113752,0
0.7663242816925049,-1440,-1252,1443,113737,0
0.806431770324707,-1416,-1110,1410,113737,0
0.8463687896728516,-1149,-937,1318,113841,0
0.8864414691925049,-1145,-819,1302,113977,0
0.9263968467712402,-1277,-665,1248,114105,0
0.9663875102996826,-1113,-601,1151,113858,0
1.0052952766418457,-1208,-465,1090,113772,0
1.0452988147735596,-920,-377,905,113973,0
1.0852680206298828,-698,-380,831,114301,0
1.125657320022583,-490,-356,714,114645,0
1.165592908859253,-719,-448,698,114914,0
1.2053580284118652,-1781,-422,1190,115019,0
1.2452807426452637,-1529,-343,1084,114990,0
1.2853901386260986,-1839,-401,1280,114951,0
1.3252763748168945,-2046,-323,1532,114887,0
1.3652946949005127,-2012,-310,1457,114927,0
1.4052624702453613,-1803,-297,1380,115026,0
1.445207118988037,-1711,-316,1302,115135,0
1.485673189163208,-1642,-347,1268,115257,0
1.5242366790771484,-1585,-363,1230,115322,0
1.5644774436950684,-1489,-402,1189,115371,0
1.604193925857544,-1503,-457,1200,115440,0
1.6441888809204102,-1509,-501,1224,115365,0
1.684260368347168,-1648,-500,1235,114810,0
1.7247998714447021,-1694,-504,1245,114538,0
1.764925241470337,-1660,-485,1253,114602,0
1.8048174381256104,-1571,-459,1228,114712,0
1.8441603183746338,-1614,-452,1209,114803,0
1.8841400146484375,-1605,-436,1221,114813,0
1.9241349697113037,-1553,-431,1163,114794,0
1.9641773700714111,-1637,-419,1218,114732,0
2.0041189193725586,-1601,-423,1185,114744,0
2.0442330837249756,-1590,-414,1196,114840,0
2.083230495452881,-1573,-425,1234,114940,0
2.1233134269714355,-1528,-442,1240,115041,0
2.1633238792419434,-1546,-439,1255,115122,0
2.203205108642578,-1522,-450,1240,115205,0
2.243218421936035,-1512,-431,1249,115257,0
2.283386707305908,-1501,-425,1244,115295,0
2.323389768600464,-1433,-429,1218,115276,0
2.3637101650238037,-1443,-417,1203,114806,0
2.40322208404541,-1407,-418,1189,114533,0
2.4432051181793213,-1304,-403,1142,114539,0
2.483259916305542,-1033,-402,1042,114638,0
2.523272752761841,-976,-470,1060,114694,0
2.563243865966797,-954,-591,1116,114758,0
2.6032891273498535,-981,-748,1270,114693,0
2.642430305480957,-1119,-790,1399,114594,0
2.6822705268859863,-1060,-949,1308,114536,0
2.7222867012023926,-1057,-1179,1209,114549,0
2.762371063232422,-1478,-1392,1288,114561,0
2.8022539615631104,-1419,-1529,1255,114523,0
2.8423240184783936,-1307,-1663,1106,114497,0
2.8822922706604004,-1300,-1759,1093,114459,0
2.9227523803710938,-1321,-1770,1061,114419,0
2.9624791145324707,-1361,-1677,1072,114375,0
3.0024356842041016,-1292,-1634,1123,114209,0
3.0423052310943604,-1163,-1612,1093,113807,0
3.0823912620544434,-1005,-1610,993,113568,0
3.1223714351654053,-922,-1549,1025,113533,0
3.162294387817383,-885,-1541,1086,113569,0
3.2012386322021484,-888,-1572,1047,113586,0
3.2412266731262207,-885,-1604,1028,113614,0
3.281547784805298,-894,-1612,1015,113587,0
3.3217506408691406,-872,-1602,1029,113541,0
3.3612194061279297,-787,-1621,1058,113481,0
3.4012372493743896,-721,-1625,1014,113486,0
3.4412848949432373,-666,-1580,938,113560,0
3.4812660217285156,-600,-1491,1025,113614,0
3.5214810371398926,-524,-1502,1044,113638,0
3.5613677501678467,-520,-1538,1012,113681,0
3.6011769771575928,-517,-1568,1032,113673,0
3.641468048095703,-583,-1611,984,113707,0
3.6814064979553223,-584,-1646,971,113740,0
3.7206718921661377,-492,-1678,977,113658,0
3.7604119777679443,-334,-1728,951,113335,0
3.8008055686950684,-330,-1748,944,113177,0
3.8402061462402344,-352,-1820,911,113200,0
3.880189895629883,-447,-1848,894,113232,0
3.920201539993286,-520,-1788,990,113219,0
3.9803407192230225,-574,-1771,1035,113234,0
4.000512599945068,-550,-1764,1101,113179,0
4.040289640426636,-537,-1745,1033,113137,0
4.080255746841431,-525,-1738,1050,113107,0
4.1202616691589355,-532,-1759,1054,113132,0
4.160250186920166,-555,-1767,1080,113139,0
4.2002480030059814,-575,-1754,1105,113191,0
4.240213632583618,-609,-1760,1149,113235,0
4.279308319091797,-647,-1785,1203,113242,0
4.3193724155426025,-639,-1772,1225,113244,0
4.359180212020874,-566,-1737,1184,113260,0
4.399262189865112,-488,-1682,1159,113301,0
4.439426422119141,-436,-1626,1228,113275,0
4.479260683059692,-423,-1623,1174,113078,0
4.519301891326904,-390,-1637,1067,112912,0
4.559466123580933,-423,-1585,1118,112913,0
4.599230766296387,-452,-1547,1173,112947,0
4.639223098754883,-495,-1547,1210,112960,0
4.679198980331421,-551,-1538,1200,113018,0
4.719228744506836,-585,-1477,1235,112978,0
4.759727716445923,-562,-1404,1259,113003,0
4.799250602722168,-616,-1370,1251,113037,0
4.838273525238037,-681,-1382,1239,113111,0
4.8781890869140625,-730,-1333,1448,113136,0
4.918408632278442,-778,-1297,1577,113199,0
4.958262920379639,-794,-1340,1366,113316,0
4.9982218742370605,-844,-1351,1176,113406,0
5.038464307785034,-812,-1402,1104,113487,0
5.07821798324585,-736,-1473,1033,113518,0
5.1182379722595215,-766,-1480,984,113551,0
5.158915042877197,-792,-1488,951,113585,0
5.198237419128418,-831,-1511,913,113609,0
5.238225698471069,-820,-1529,923,113410,0
5.278300046920776,-798,-1573,1010,113053,0
5.318279504776001,-701,-1600,1183,112919,0
5.358600854873657,-680,-1657,1097,112944,0
5.397179126739502,-651,-1689,1054,112990,0
5.437236070632935,-707,-1624,1133,113019,0
5.4771904945373535,-698,-1480,1108,113061,0
5.517253637313843,-713,-1442,1036,113104,0
5.557346820831299,-686,-1701,1122,113052,0
5.597245216369629,-722,-1938,1140,113024,0
5.637176513671875,-830,-1846,993,113049,0
5.677188158035278,-842,-1711,810,113130,0
5.717185735702515,-773,-1666,816,113190,0
5.7571611404418945,-683,-1690,1011,113211,0
5.797263145446777,-649,-1673,1045,113255,0
5.837146759033203,-693,-1698,1118,113286,0
5.877186298370361,-847,-1582,1128,113352,0
5.917176246643066,-849,-1515,1182,113435,0
5.956451654434204,-860,-1447,1207,113329,0
5.996276140213013,-761,-1389,1363,113044,0
6.036279916763306,-625,-1440,1386,112929,0
6.076245546340942,-627,-1574,1322,112996,0
6.116230726242065,-835,-1538,1342,113018,0
6.1562066078186035,-877,-1344,1336,113081,0
6.196553707122803,-744,-1266,1195,113120,0
6.236282587051392,-527,-1316,1205,113124,0
6.27623176574707,-554,-1405,1191,113130,0
6.316223859786987,-684,-1504,1065,113142,0
6.356204986572266,-690,-1506,1044,113186,0
6.396197080612183,-756,-1446,1267,113203,0
6.43617582321167,-837,-1320,1370,113276,0
6.4762372970581055,-822,-1197,1384,113356,0
6.515214443206787,-782,-1195,1495,113439,0
6.555370092391968,-829,-1277,1567,113517,0
6.59518575668335,-880,-1327,1472,113443,0
6.635174036026001,-835,-1248,1382,113155,0
6.675245761871338,-721,-1239,1309,113095,0
6.715217590332031,-677,-1324,1150,113182,0
6.755201816558838,-769,-1254,1039,113297,0
6.795335292816162,-964,-1131,1383,113319,0
6.835241794586182,-1140,-1133,1623,113282,0
6.875192403793335,-952,-1691,1045,113272,0
6.9152162075042725,-762,-1799,607,113272,0
6.955230951309204,-835,-1520,940,113202,0
6.995150089263916,-979,-1292,1338,113170,0
7.035284519195557,-947,-1286,1446,113222,0
7.074226140975952,-968,-1451,1206,113365,0
7.114246368408203,-1013,-1480,1003,113502,0
7.154253244400024,-1045,-1445,892,113612,0
7.194386720657349,-977,-1456,796,113716,0
7.234166860580444,-971,-1515,935,113739,0
7.274165630340576,-974,-1655,1028,113537,0
7.314191102981567,-965,-1663,1071,113276,0
7.3542070388793945,-973,-1636,959,113240,0
7.394170761108398,-938,-1569,889,113368,0
7.434163570404053,-907,-1527,886,113636,0
7.474181175231934,-913,-1587,945,113868,0
7.514700889587402,-934,-1734,974,113928,0
7.554179430007935,-1015,-1817,995,113848,0
7.594229698181152,-1023,-1905,979,113764,0
7.634281873703003,-1026,-1768,867,113835,0
7.673206090927124,-910,-1486,899,113978,0
7.713282823562622,-782,-1423,896,114066,0
7.753280401229858,-626,-1597,1017,114130,0
7.793451547622681,-755,-1472,1138,114203,0
7.8331615924835205,-902,-1411,1114,114256,0
7.873246192932129,-881,-1488,979,114319,0
7.913241147994995,-869,-1422,978,114400,0
7.9532036781311035,-842,-1336,1137,114153,0
7.993196249008179,-877,-1344,1339,113832,0
8.033321857452393,-917,-1407,1471,113791,0
8.073363304138184,-1103,-1451,1419,113897,0
8.113297700881958,-1434,-1595,1463,114005,0
8.153230905532837,-1456,-1614,1486,114103,0
8.19323468208313,-1178,-1322,1192,114264,0
8.232299089431763,-780,-993,1069,114414,0
8.27236819267273,-479,-746,1080,114603,0
8.312255382537842,-405,-724,1040,114826,0
8.352248430252075,-373,-872,1120,115003,0
8.392217636108398,-341,-1159,1147,115105,0
8.4322030544281,-690,-1344,1389,115146,0
8.472315311431885,-805,-1470,1440,115095,0
8.51223087310791,-767,-1648,1212,115052,0
8.55224609375,-827,-1687,1217,115004,0
8.59221076965332,-943,-1625,1285,114790,0
8.632575511932373,-1040,-1565,1323,114331,0
8.672266006469727,-1030,-1582,1239,114096,0
8.712329149246216,-922,-1584,1113,114127,0
8.752235651016235,-900,-1509,1039,114229,0
8.791302919387817,-837,-1474,1058,114291,0
8.831399202346802,-741,-1609,1071,114304,0
8.871286153793335,-646,-1911,985,114245,0
8.911256790161133,-585,-2077,928,114173,0
8.951149940490723,-677,-1972,858,114169,0
8.991150140762329,-711,-1657,780,114226,0
9.031952381134033,-713,-1582,707,114294,0
9.071200609207153,-712,-1709,673,114405,0
9.111163854598999,-758,-1924,621,114579,0
9.151324033737183,-712,-2049,679,114623,0
9.2098069190979,-701,-1842,627,114626,0
9.231184959411621,-562,-1636,644,114349,0
9.27129054069519,-499,-1634,797,114193,0
9.3111891746521,-338,-1668,1106,114258,0
9.35022497177124,-433,-1756,1167,114414,0
9.390174150466919,-504,-1786,1072,114567,0
9.43038535118103,-496,-1709,1098,114636,0
9.470221757888794,-397,-1532,1220,114646,0
9.510308742523193,-306,-1541,1370,114585,0
9.550214529037476,-431,-1666,1282,114566,0
9.590185642242432,-561,-1749,1061,114598,0
9.630314111709595,-583,-1701,1001,114617,0
9.670235395431519,-565,-1718,1039,114617,0
9.710235118865967,-610,-1722,1151,114623,0
9.750210285186768,-601,-1758,1189,114640,0
9.790404796600342,-575,-1808,1097,114601,0
9.830182790756226,-486,-1779,1094,114304,0
9.871561527252197,-440,-1812,1118,114132,0
9.909212112426758,-420,-1845,1078,114158,0
9.949292421340942,-422,-1814,996,114232,0
9.989257097244263,-378,-1761,917,114305,0
10.029227256774902,-401,-1697,930,114370,0
10.069211959838867,-430,-1672,905,114386,0
10.109178066253662,-445,-1706,819,114386,0
10.149213790893555,-566,-1751,851,114382,0
10.189271211624146,-796,-1725,866,114418,0
10.229177713394165,-949,-1668,790,114443,0
10.269227027893066,-899,-1648,801,114470,0
10.30922532081604,-914,-1561,882,114481,0
10.349183082580566,-893,-1547,1047,114491,0
10.38921594619751,-972,-1478,946,114533,0
10.429261922836304,-960,-1471,816,114369,0
10.468215227127075,-935,-1545,903,114192,0
10.508196115493774,-925,-1412,947,114245,0
10.548189163208008,-883,-1397,877,114357,0
10.588206052780151,-796,-1947,1087,114359,0
10.628187656402588,-977,-1542,1623,114339,0
10.668686628341675,-902,-1302,1558,114315,0
10.708210945129395,-398,-1844,635,114368,0
10.748212337493896,-448,-1800,681,114410,0
10.788169860839844,-749,-1359,1377,114404,0
10.828190088272095,-914,-1234,1642,114395,0
10.868886709213257,-794,-1449,1609,114385,0
10.908174276351929,-574,-1509,1481,114433,0
10.948176383972168,-523,-1460,1024,114614,0
10.987214088439941,-591,-1276,837,114809,0
11.027226686477661,-636,-1234,1157,114759,0
11.067728996276855,-874,-1349,1526,114363,0
11.107264041900635,-1006,-1442,1527,114230,0
11.147294521331787,-1035,-1481,1109,114356,0
11.187235355377197,-1069,-1445,960,114482,0
11.227169036865234,-1096,-1520,1085,114486,0
11.2671959400177,-913,-1671,1011,114500,0
11.307210206985474,-886,-1423,925,114522,0
11.34718370437622,-868,-1322,1181,114496,0
11.387208223342896,-932,-1448,1365,114481,0
11.427185297012329,-710,-1884,1047,114487,0
11.469050407409668,-566,-1907,610,114642,0
11.50721287727356,-865,-1399,795,114752,0
11.54622483253479,-908,-1349,1290,114788,0
11.58622932434082,-858,-1470,1269,114867,0
11.626197576522827,-711,-1769,1006,114867,0
11.666215896606445,-551,-1810,569,114653,0
11.706185817718506,-897,-1400,729,114547,0
11.74618911743164,-1102,-1399,1191,114588,0
11.786205291748047,-992,-1665,1091,114660,0
11.826240539550781,-973,-1702,1024,114698,0
11.866179466247559,-988,-1674,916,114755,0
11.906224966049194,-889,-1550,740,114839,0
11.94629716873169,-926,-1544,858,114895,0
11.98625922203064,-849,-1551,1135,114885,0
12.026177883148193,-853,-1618,1216,114945,0
12.066583156585693,-864,-1549,1168,115058,0
12.105234861373901,-824,-1513,931,115279,0
12.145236492156982,-688,-1566,887,115509,0
12.185296058654785,-651,-1650,829,115720,0
12.225197315216064,-759,-1554,921,115924,0
12.265225172042847,-822,-1476,1109,115882,0
12.305274724960327,-847,-1234,1078,115668,0
12.345240831375122,-780,-1478,1045,115639,0
12.385292291641235,-641,-2419,1371,115704,0
12.425211429595947,-1078,-2322,1241,115771,0
12.465292930603027,-1329,-1276,955,115924,0
12.505334854125977,-807,-1024,937,116059,0
12.545197486877441,-481,-1212,1113,116088,0
12.585252046585083,-551,-1482,1062,116101,0
12.625208854675293,-865,-1593,1021,116121,0
12.664257526397705,-911,-1788,1002,116148,0
12.704672574996948,-827,-1852,1004,116118,0
12.744180679321289,-858,-1692,922,116163,0
12.784168720245361,-928,-1403,874,116283,0
12.824333429336548,-894,-1218,964,116322,0
12.864222526550293,-674,-1933,1143,116006,0
12.904379844665527,-1141,-1453,990,115689,0
12.944222211837769,-1087,-1462,1081,115724,0
12.984232664108276,-1001,-1640,1129,115816,0
13.02423357963562,-1054,-1447,1044,115920,0
13.064207553863525,-956,-1370,1065,116019,0
13.104270458221436,-870,-1396,1025,116144,0
13.144325256347656,-941,-1361,994,116253,0
13.183332681655884,-944,-1392,1026,116327,0
13.22321891784668,-945,-1480,1048,116402,0
13.26325273513794,-1047,-1470,1041,116488,0
13.30319881439209,-996,-1428,1029,116562,0
13.343238353729248,-871,-1366,1055,116630,0
13.383207082748413,-802,-1349,1058,116697,0
13.423234224319458,-740,-1392,1031,116652,0
13.463253259658813,-771,-1452,1048,116197,0
13.50337553024292,-905,-1520,1100,115929,0
13.543264150619507,-1073,-1539,1168,115961,0
13.583245277404785,-1086,-1528,1134,116043,0
13.623240947723389,-1088,-1503,1124,116053,0
13.663217544555664,-1001,-1511,1125,116101,0
13.703242063522339,-944,-1503,1085,116099,0
13.742202281951904,-937,-1482,1039,116064,0
13.782212018966675,-937,-1443,1069,116125,0
13.822214126586914,-985,-1522,1054,116268,0
13.862215757369995,-925,-1520,1088,116446,0
13.902226686477661,-926,-1467,1103,116573,0
13.942208528518677,-957,-1475,1100,116676,0
13.982213735580444,-958,-1486,1098,116733,0
14.022246837615967,-985,-1474,1096,116608,0
14.062209844589233,-931,-1448,1070,116120,0
14.102276086807251,-915,-1442,1060,115971,0
14.142516374588013,-1008,-1428,1101,116068,0
14.182328939437866,-1067,-1410,1110,116196,0
14.222266674041748,-1012,-1389,1064,116328,0
14.262238502502441,-1091,-1357,1143,116420,0
14.301217317581177,-1084,-1398,1145,116448,0
14.341888427734375,-1007,-1336,1143,116498,0
14.381218433380127,-964,-1328,1092,116549,0
14.421279191970825,-974,-1277,1082,116651,0
14.461279153823853,-1003,-1244,1101,116717,0
14.501230001449585,-1084,-1273,1127,116790,0
14.54154372215271,-1147,-1267,1097,116838,0
14.581240177154541,-1182,-1261,1180,116855,0
14.621243000030518,-1254,-1324,1200,116709,0
14.661293745040894,-1812,-1621,1590,116333,0
14.701268196105957,-1895,-1640,1663,116391,0
14.741276741027832,-1117,-1491,1151,116577,0
14.781262636184692,-1161,-1426,1156,116730,0
14.821266174316406,-2196,-1283,1719,116866,0
14.86026906967163,-2689,-1758,2397,116950,0
14.900233030319214,-2351,-1093,2238,117044,0
14.940421104431152,-2418,-108,1809,117315,0
14.980216264724731,-3467,2577,2430,117857,0
15.02027153968811,-1966,7185,2648,118333,1
15.06021761894226,-1068,5609,934,118375,1
15.100527286529541,4318,2126,-4550,119035,1
15.140448570251465,-4927,-21629,5806,102944,1
15.180402040481567,-8450,-13512,2767,114402,1
15.220228910446167,3931,-3435,1146,117293,1
15.260212659835815,1300,18047,1513,124715,1
15.300257205963135,-7422,16355,291,126224,1
15.340229511260986,8863,4356,-6185,124897,1
15.379547834396362,1447,-15024,5790,116360,1
15.419265270233154,-18491,-13401,13623,114156,1
15.459251403808594,3871,-6903,-900,115413,1
15.49945878982544,3428,12416,-2403,118604,1
15.539276599884033,-2868,19192,-6669,119991,1
15.579270362854004,7039,5691,-4048,119525,1
15.619216918945312,939,-18413,6813,118459,1
15.659382581710815,-15593,-11901,9962,116731,1
15.699270009994507,2570,-8457,-487,118165,1
15.739240884780884,2426,11141,-1646,121617,1
15.779295921325684,-5979,21970,828,123300,1
15.819262981414795,5596,9644,-636,123447,1
15.859235286712646,4435,-4527,-3347,122317,1
15.899300575256348,-14553,-22643,12682,119188,1
15.939240455627441,2071,-13480,-281,119103,1
15.978246688842773,1470,1932,739,121854,1
16.018304347991943,-2818,15576,-2314,122711,1
16.058270692825317,-991,15173,1027,124314,1
16.098474979400635,6852,5076,1270,123853,1
16.138274431228638,-4062,-24181,6902,121342,1
16.178874969482422,-6358,-13508,1857,120033,1
16.21886372566223,460,-3500,-524,121866,1
16.25824761390686,-3117,14832,-1283,123430,1
16.29829168319702,-4830,16662,4950,124756,1
16.338250637054443,5778,7571,-1680,124466,1
16.378265380859375,4833,-2445,-3548,123541,1
16.41825246810913,-9276,-21200,7581,121932,1
16.45827078819275,-2950,-11923,3325,120740,1
16.498219966888428,1016,-599,1189,122524,1
16.537271738052368,-1312,14079,-696,123801,1
16.57761573791504,-4252,18634,2078,124259,1
16.617433786392212,7264,6524,-771,123950,1
16.65726637840271,1741,-6170,1884,123495,1
16.69736957550049,-14243,-17125,10056,122531,1
16.737305164337158,3628,-11170,-1075,121932,1
16.77723240852356,450,1679,-173,123327,1
16.817277431488037,-6609,16459,-1531,123911,1
16.857274770736694,-2966,13693,2972,123887,1
16.897276639938354,7620,5895,-661,123539,1
16.937262773513794,2035,-10162,2112,122728,1
16.977508068084717,-13485,-16153,9704,120203,1
17.017645597457886,2273,-9074,-350,120466,1
17.057326793670654,519,4893,-33,122654,1
17.096272230148315,-4967,17728,203,123636,1
17.13624882698059,-242,12617,5540,123272,1
17.17633080482483,2426,2971,-560,123031,1
17.21677255630493,-1259,-17557,5358,122122,1
17.256675004959106,-8457,-11091,3513,121368,1
17.296228647232056,2219,-7909,99,121753,1
17.33624792098999,375,4690,7,123145,1
17.37625479698181,-9159,17699,1413,123736,1
17.416282653808594,-571,10663,8189,123442,1
17.45629382133484,5000,4214,-2552,123307,1
17.49626350402832,2214,-8693,801,123128,1
17.536311388015747,-10158,-15642,5263,122998,1
17.57628107070923,-1110,-11402,2253,121730,1
17.616615056991577,-74,-1260,1056,122988,1
17.65525984764099,-2792,15260,691,123782,1
17.695287466049194,-4791,16204,5265,123727,1
17.735264539718628,4474,4070,1988,123426,1
17.77524733543396,1144,-12653,876,123360,1
17.81527328491211,-12682,-10399,8083,122160,1
17.855931520462036,4052,-9016,-1264,122460,1
17.895215272903442,697,7043,-11,123750,1
17.935309171676636,-3720,19491,274,124263,1
17.975287675857544,7204,9012,1194,124051,1
18.01567530632019,4242,957,-3204,123925,1
18.055561304092407,-3251,-24261,7212,122695,1
18.095280408859253,-11037,-7032,6827,121411,1
18.13529634475708,1663,-5811,-129,122738,1
18.175275802612305,1047,10511,-1884,123945,1
18.214573621749878,-3088,20130,-1607,124499,1
18.254230499267578,6071,8276,2290,124289,1
18.294265031814575,1138,-2048,-753,124102,1
18.334327220916748,-10777,-17285,12513,122632,1
18.374279737472534,-185,-15586,238,122862,1
18.414247274398804,361,788,-410,123923,1
18.454276084899902,-5196,16302,731,124560,1
18.494253396987915,1236,13555,5106,124330,1
18.53426766395569,8452,6402,-5202,124374,1
18.574315547943115,4333,-8339,-3353,124062,1
18.614301204681396,-12641,-22231,7850,123004,1
18.654319286346436,-1061,-11795,4727,122667,1
18.694260358810425,-155,932,1812,124012,1
18.733275413513184,-4669,16796,3154,124539,1
18.773290634155273,-3980,17714,5626,124929,1
18.81333327293396,7040,6174,-1165,124614,1
18.853282928466797,-1228,-11861,3416,122963,1
18.893303394317627,-20458,-16505,8757,120664,1
18.933276891708374,5415,-11397,-863,121332,1
18.973283290863037,2485,6952,-422,124366,1
19.04761266708374,5869,23878,-2115,124867,1
19.053290843963623,8818,11232,6104,124541,1
19.09328818321228,5917,547,-3580,124237,1
19.13335347175598,-10266,-32529,4514,123697,1
19.17331624031067,-5683,-11709,9127,122469,1
19.213270664215088,1497,-274,1913,124046,1
19.25334858894348,-4815,16830,-30,124729,1
19.29228448867798,2706,14789,4769,124874,1
19.332318544387817,4972,7997,726,124706,1
19.372328519821167,3714,-7868,-2089,124473,1
19.41235589981079,-17439,-17412,10195,124052,1
19.45232129096985,4766,-12776,395,124290,1
19.49224328994751,1463,1385,179,124966,1
19.532289505004883,-6220,16209,1765,125259,1
19.572295665740967,4923,13725,7763,125067,1
19.612340688705444,6014,7622,-1694,124552,1
19.652390956878662,4268,-5752,-1795,124069,1
19.692299842834473,-13224,-22205,6530,123921,1
19.732276439666748,-111,-13353,4083,123435,1
19.772327661514282,375,-1198,1217,124310,1
19.812408208847046,-2513,15219,623,124536,1
19.851260900497437,1379,18170,1750,124668,1
19.891260862350464,5648,7883,1594,124462,1
19.931281805038452,2350,-8220,10,124049,1
19.971318006515503,-17236,-14229,11543,123828,1
20.011305332183838,5654,-12664,-1513,123587,1
20.051523685455322,1063,1625,174,124467,1
20.091291666030884,-4701,13604,917,124795,1
20.13125777244568,2862,15435,4714,124835,1
20.17130708694458,8378,7463,-2195,124453,1
20.2112820148468,5043,-7667,-1586,123799,1
20.25207781791687,-17312,-19982,7455,123705,1
20.29179883003235,4246,-14418,3019,122002,1
20.331268072128296,2458,1626,1694,123703,1
20.371299266815186,-6464,19210,1518,124158,1
20.41030764579773,2899,14213,3784,123826,1
20.45046615600586,4262,5570,-4134,123010,1
20.490307569503784,3753,-13697,1836,122585,1
20.53040647506714,-18666,-11484,13396,120925,1
20.570306301116943,5031,-11940,-389,120972,1
20.610493421554565,2921,3683,-382,123885,1
20.650386571884155,-1397,17178,1781,124286,1
20.690320014953613,4813,14318,5978,123862,1
20.730321884155273,4250,4516,-6632,122490,1
20.771053791046143,2067,-17596,1957,122007,1
20.810357093811035,-15280,-11474,11888,120154,1
20.850309371948242,3602,-10808,42,119810,1
20.890366792678833,2000,4068,761,122069,1
20.930289268493652,-5630,17555,3743,122896,1
20.96929097175598,366,14392,8542,123276,1
21.009344816207886,4093,4747,-8484,123118,1
21.049702882766724,4794,-5519,-2323,122720,1
21.089362621307373,-13335,-21024,10001,121795,1
21.129336833953857,2199,-16331,1398,121059,1
21.169270515441895,1123,339,780,123530,1
21.209580183029175,-2054,14934,3474,124191,1
21.24949812889099,1833,17487,6905,124381,1
21.28930354118347,4948,7129,-1566,123919,1
21.329350233078003,3949,-7976,-2654,122985,1
21.36983323097229,-14321,-18790,9308,123543,1
21.409353494644165,2744,-17053,1020,122245,1
21.44930148124695,1150,308,521,123841,1
21.488373279571533,-2470,14204,2544,124176,1
21.52831482887268,-381,15287,9118,124578,1
21.568380117416382,5882,6257,-471,124240,1
21.608319520950317,2737,-2375,-4799,122607,1
21.648289918899536,-6525,-21426,6726,122947,1
21.68835425376892,-5087,-11210,5135,122033,1
21.728290557861328,842,-2396,746,124069,1
21.76842164993286,-952,12873,1330,124461,1
21.80838632583618,-3695,20697,3636,124451,1
21.84833073616028,7300,6993,-1974,123676,1
21.88910675048828,2258,-5038,-1606,122521,1
21.928348302841187,-15307,-19809,12180,121647,1
21.968336820602417,3399,-13323,-518,120977,1
22.008281230926514,670,4066,-418,122859,1
22.047285318374634,-5441,20067,2067,123579,1
22.087661027908325,8122,11395,6160,123974,1
22.1272873878479,4608,5561,-2702,123634,1
22.167314529418945,2173,-12780,461,122713,1
22.20738196372986,-17851,-15082,12079,120577,1
22.24738121032715,5198,-11797,-1680,120526,1
22.287331581115723,1751,4052,639,122678,1
22.327330589294434,-5119,16611,2140,123301,1
22.36732769012451,-1753,14177,7647,123549,1
22.407299280166626,6709,5012,-3240,123130,1
22.44731640815735,2181,-7467,2098,121859,1
22.48734211921692,-15804,-15693,7749,121628,1
22.52732753753662,5058,-14260,-138,120064,1
22.566261529922485,740,-259,213,122416,1
22.606361150741577,-1685,12871,1401,123211,1
22.646342039108276,-3184,15842,9601,123472,1
22.686280488967896,6089,6629,1893,123290,1
22.726317882537842,1275,-1407,-2875,121142,1
22.7663254737854,-5726,-21372,5228,122068,1
22.806418895721436,-6629,-10289,3775,120531,1
22.846328020095825,1068,-3679,750,122458,1
22.88658833503723,319,11083,-553,123432,1
22.926361083984375,-641,18436,4229,123671,1
22.966610431671143,5775,8345,2660,123403,1
23.00631356239319,2673,-1572,-3969,121742,1
23.046381950378418,-8919,-19805,8984,121667,1
23.08633327484131,-4641,-12979,3529,119734,1
23.12533926963806,1309,-3320,754,122359,1
23.16535782814026,859,11240,-1083,123595,1
23.205339670181274,-5271,20007,3812,123874,1
23.24543833732605,6960,7164,230,123635,1
23.285314798355103,3854,-676,-5990,121803,1
23.325510263442993,-8857,-22940,9062,121266,1
23.36546301841736,-3271,-11683,6191,120502,1
23.40536379814148,1322,-2193,-274,122612,1
23.445475578308105,-1568,13007,-966,123461,1
23.485353469848633,-268,17649,4362,123758,1
23.52563238143921,6925,7684,-1851,123448,1
23.56547737121582,3051,-1854,-5005,121351,1
23.60531711578369,-6567,-24346,6454,121851,1
23.64539670944214,-7919,-8900,5826,120423,1
23.68429923057556,171,-5096,1906,122438,1
23.724343299865723,3636,8604,-417,124042,1
23.76431703567505,-7018,20595,832,123930,1
23.804357290267944,5513,8155,2408,123924,1
23.84430980682373,4506,1837,-2953,121861,1
23.88437032699585,-4928,-22831,7499,120602,1
23.924769163131714,-10761,-10541,7226,118737,1
23.964349269866943,1913,-5311,-144,121625,1
24.004322290420532,37,12229,-2735,123035,1
24.044371128082275,-916,17512,2032,123511,1
24.084301948547363,4642,8706,259,123377,1
24.124329805374146,5550,704,-7239,121969,1
24.164358854293823,-2542,-21301,3387,122012,1
24.203360557556152,-13814,-8678,12054,120488,1
24.243340253829956,1428,-6565,943,122241,1
24.283305644989014,2674,7778,307,123444,1
24.323381423950195,-6091,21018,3234,123582,1
24.363352060317993,2000,10045,2521,123453,1
24.40335750579834,3565,3233,-5504,122133,1
24.44361162185669,-933,-21959,5724,121673,1
24.483359575271606,-15639,-9167,8489,120745,1
24.523632049560547,3410,-8664,-122,121913,1
24.563453674316406,1298,7539,-1784,123198,1
24.60337543487549,-3834,21697,2495,123717,1
24.643319129943848,9425,9641,4270,123716,1
24.68338179588318,4108,2248,-3573,121820,1
24.723448753356934,-3855,-27342,1930,121880,1
24.76236844062805,-8841,-9417,7949,120030,1
24.802427768707275,1557,-4965,878,122028,1
24.84235119819641,-845,12350,964,122831,1
24.882369995117188,-6983,18939,3971,123394,1
24.922324419021606,6786,7322,-358,123251,1
24.962381839752197,3505,1739,-4859,121468,1
25.00238561630249,-2099,-23994,3809,121418,1
25.04237675666809,-12503,-5886,10257,120430,1
25.082359790802002,3168,-8241,-178,121506,1
25.122375011444092,2359,4739,-1091,122876,1
25.1624116897583,-3737,19265,1736,122875,1
25.20236325263977,2104,11195,6057,122945,1
25.242483377456665,4952,3943,-3691,121861,1
25.28236985206604,1151,-18050,1998,121695,1
25.321365118026733,-16079,-10550,11411,120112,1
25.361372470855713,3286,-9669,-9,121413,1
25.401376485824585,1871,5844,-354,122953,1
25.441394567489624,-3199,20375,439,123061,1
25.481351137161255,6706,10433,1548,122659,1
25.521368265151978,1803,4607,-6768,121782,1
25.561508178710938,2073,-8753,1774,120275,1
25.601414680480957,-15236,-17388,10168,120566,1
25.641409397125244,3850,-14153,1916,119782,1
25.68135690689087,2452,736,1143,122334,1
25.721322298049927,-1270,13949,1157,122279,1
25.761412382125854,-1009,16198,3557,122483,1
25.8013756275177,2876,6471,-2400,122009,1
25.84038019180298,2640,-1453,-2293,120627,1
25.880400896072388,-5653,-20572,6863,120021,1
25.920411586761475,-5894,-9964,5798,118915,1
25.96105146408081,731,-4831,987,120582,1
26.000314235687256,2365,5802,-74,121987,1
26.040366411209106,-4787,16669,2915,121961,1
26.080360651016235,1812,9957,3546,122123,1
26.120395183563232,3120,3987,-5111,121222,1
26.16042709350586,2761,-6760,2031,119035,1
26.20049810409546,-13013,-17576,11358,118490,1
26.2405526638031,2509,-10405,-311,118838,1
26.280369520187378,1646,1972,-176,120615,1
26.32035231590271,-3854,14222,2997,120642,1
26.36040234565735,-2498,13885,6480,121184,1
26.399901628494263,3577,5357,-7385,120731,1
26.439437866210938,4280,741,-2560,119650,1
26.479408264160156,-1231,-20575,2778,119157,1
26.51946496963501,-12464,-4263,13472,118207,1
26.559346675872803,2189,-8724,-638,120183,1
26.5994234085083,3032,5033,-376,121935,1
26.63933300971985,-4242,17608,1215,122039,1
26.679478883743286,2996,11268,1905,121789,1
26.719343662261963,3575,4164,-3586,120943,1
26.75934934616089,937,-10913,3992,119996,1
26.79940962791443,-14404,-11938,13445,118042,1
26.839357376098633,2826,-9648,-894,118751,1
26.879358053207397,1029,2825,-290,120274,1
26.919339656829834,-3764,15071,983,121108,1
26.958338260650635,10216,9244,508,121598,1
26.99833035469055,4720,6610,-2589,120951,1
27.03839921951294,4309,-2734,-2555,118963,1
27.078497409820557,-8589,-22533,7054,117895,1
27.11841630935669,-7321,-10462,5723,118000,1
27.158411502838135,1037,-2884,1155,119942,1
27.19834280014038,1075,10807,169,120691,1
27.23848605155945,-960,19255,3270,121713,1
27.278364658355713,6289,7503,-1778,121001,1
27.31833839416504,3864,342,-4495,119590,1
27.358414888381958,-4773,-22887,8552,117723,1
27.399198293685913,-7676,-9021,8727,118183,1
27.43835711479187,1004,-4020,180,119267,1
27.478362798690796,-1998,8523,-2156,118796,1
27.517403841018677,-2423,16732,4092,119623,1
27.557356119155884,7867,7977,1087,119642,1
27.59748125076294,5010,4183,-7043,119293,1
27.637362718582153,2738,-8445,2101,116905,1
27.67802143096924,-18638,-15154,16086,116970,1
27.717415809631348,3771,-11785,-1900,116986,1
27.757328271865845,1687,723,-59,118611,1
27.79800510406494,-1539,11771,1091,118995,1
27.837403774261475,26,16265,4429,119142,1
27.87742042541504,1957,7625,-3348,119071,1
27.917449235916138,3271,121,-5109,118231,1
27.957497119903564,-1467,-21282,8481,118055,1
27.997388124465942,-13586,-5985,10776,116940,1
28.03649067878723,1717,-7765,172,117592,1
28.076329231262207,2498,3957,356,118558,1
28.11638045310974,-3522,14605,2806,118537,1
28.156368255615234,3129,12225,2841,119281,1
28.19635510444641,3424,6325,-4399,119249,1
28.236366987228394,4702,-1947,-1872,117481,1
28.276522874832153,-6704,-21137,4833,115888,1
28.31641912460327,-4905,-8355,6863,117243,1
28.35639262199402,588,-3399,1279,118321,1
28.396367073059082,1664,6012,830,118670,1
28.436419248580933,-4810,15540,3268,118496,1
28.476358890533447,372,10519,1707,118661,1
28.516384601593018,1410,5054,-5374,118796,1
28.55636692047119,4036,-4444,-1049,117403,1
28.639853954315186,-5195,-20278,10394,116270,1
28.64073371887207,-5832,-10331,5219,117300,1
28.675379991531372,1242,-4298,2047,118485,1
28.71540379524231,2769,7237,-1442,118792,1
28.7554829120636,-5227,17333,1909,118640,1
28.795405864715576,2190,10065,939,118984,1
28.835455894470215,3398,2594,-5124,118914,1
28.87545657157898,2475,-16970,6173,117000,1
28.915446996688843,-12379,-7683,12271,116809,1
28.955437898635864,4405,-9692,-1495,118515,1
28.995368003845215,1522,1090,-490,119684,1
29.03542423248291,-3871,11268,1347,119067,1
29.075376987457275,-7677,15532,4007,119479,1
29.115357160568237,4880,4953,-5768,120938,1
29.154345512390137,4488,815,-2160,120060,1
29.194400548934937,-1813,-20338,4192,117204,1
29.234429836273193,-9159,-5718,13551,118307,1
29.27442240715027,2104,-8663,-1676,119553,1
29.31435990333557,2633,5697,-1147,119971,1
29.35437536239624,-3880,18384,563,119517,1
29.39439082145691,1909,10698,502,119944,1
29.434835195541382,3974,2809,-3786,119697,1
29.47442102432251,229,-18890,5728,117081,1
29.514413833618164,-10182,-9299,10964,117796,1
29.55441927909851,2214,-5966,-1085,119085,1
29.594383239746094,1341,5619,-86,119234,1
29.635359525680542,-7404,16504,1782,118955,1
29.6744065284729,453,9289,-513,120064,1
29.713372945785522,4753,4738,-4081,120112,1
29.753366470336914,4117,-5766,1432,118230,1
29.79343867301941,-5850,-22796,11358,116475,1
29.8337721824646,-8848,-10912,5113,118037,1
29.873416900634766,282,-5298,2995,119285,1
29.913470029830933,2693,6727,-1218,119457,1
29.953460216522217,-2778,20358,-2667,119922,1
29.993380308151245,7308,7571,-3169,120310,1
30.03341031074524,4513,1584,-1772,119634,1
30.073415994644165,-2117,-21049,5547,115970,1
30.11344027519226,-12846,-4742,11160,117770,1
30.15347170829773,2095,-7830,-877,119317,1
30.19335675239563,1955,2222,-629,120095,1
30.233384370803833,-3970,14124,244,119778,1
30.27341628074646,-4505,12036,3801,120356,1
30.312386751174927,4224,3621,-2214,120749,1
30.352384090423584,4698,1452,-399,120527,1
30.392646074295044,-1456,-17165,2245,116999,1
30.43259310722351,-11414,-7529,16975,118400,1
30.472460508346558,1639,-7551,-1578,119701,1
30.51243567466736,2453,4641,-2050,120123,1
30.552412509918213,-7203,19554,-2174,119815,1
30.59237265586853,310,10145,4493,120241,1
30.632372856140137,2408,4382,-4704,120359,1
30.672414541244507,1621,-4466,-702,118538,1
30.712417125701904,-8989,-18324,9130,116641,1
30.752376556396484,352,-10193,5620,118999,1
30.792421340942383,764,-2241,1276,119634,1
30.83242106437683,561,9556,-3409,119417,1
30.87185573577881,-7471,18562,744,119809,1
30.911421537399292,5140,7028,1168,120157,1
30.9513943195343,3974,1977,-4323,119965,1
30.991414070129395,-522,-13376,3828,116715,1
31.031452417373657,-15018,-10328,14792,117174,1
31.07141637802124,2777,-12001,-995,119333,1
31.111405611038208,2479,738,-300,119727,1
31.151422262191772,-3449,14489,-2763,119390,1
31.191433668136597,419,12109,7058,120157,1
31.2313973903656,1708,6437,602,119443,1
31.27257752418518,3530,877,-4689,119388,1
31.31163716316223,-1697,-16585,3134,115522,1
31.35142755508423,-11863,-8260,12577,116952,1
31.391425132751465,2997,-8850,140,118774,1
31.430407524108887,1731,908,1206,119702,1
31.47067904472351,-1446,11276,-281,119502,1
31.51044011116028,-6718,14531,7199,119974,1
31.550435304641724,-1596,5002,821,120136,1
31.590429067611694,3078,2594,-3899,120373,1
31.63040566444397,2080,-2547,847,119231,1
31.67066264152527,-3736,-19706,1966,116419,1
31.710466384887695,-7885,-2824,11835,117246,1
31.750460863113403,2041,-9544,-917,118951,1
31.79037857055664,2999,1145,607,119597,1
31.830437421798706,-1773,15240,-1375,119412,1
31.870389938354492,-3891,15764,6301,119945,1
31.91044545173645,1567,3823,-3801,119779,1
31.950425624847412,462,-5688,1263,117774,1
31.989970684051514,-10848,-18321,9718,116218,1
32.0293824672699,3076,-8898,206,119549,1
32.069586515426636,1603,384,1477,119944,1
32.10939908027649,-1625,11796,131,119198,1
32.1496856212616,-9263,15421,3193,119152,1
32.18941783905029,2543,4200,-1834,119546,1
32.22939658164978,3494,1445,-2633,119535,1
32.269423484802246,2329,-8490,2067,118162,1
32.309507608413696,-4345,-14520,13125,114512,1
32.34942412376404,-10995,-8968,156,116236,1
32.389394998550415,3187,-6140,3901,117511,1
32.42941451072693,3929,380,-1228,118405,1
32.46939563751221,-187,12798,1339,118093,1
32.508418798446655,-3037,14263,6579,118049,1
32.54857420921326,1091,4001,-3897,118321,1
32.588396310806274,2257,457,-865,118063,1
32.628578901290894,-2946,-15558,1638,114644,1
32.668457984924316,-7860,-7546,10380,116521,1
32.708444356918335,2061,-6171,129,117735,1
32.74843430519104,2742,1410,1090,118826,1
32.78840446472168,-1035,10110,619,118283,1
32.82843470573425,-8445,13496,7438,117902,1
32.868409633636475,-3595,5499,-23,118572,1
32.90885782241821,1582,3689,-2392,118947,1
32.94854807853699,3238,-3584,297,118003,1
32.9885618686676,-4268,-19984,6531,114362,1
33.02901363372803,-10393,-6465,7580,116438,1
33.06740164756775,3045,-8888,1118,118258,1
33.107537031173706,3457,669,-995,118778,1
33.14744019508362,-1351,10610,-1586,118443,1
33.18745183944702,-3232,14665,6388,119408,1
33.22739601135254,1448,6135,2180,119116,1
33.26744270324707,1884,2168,-3972,119315,1
33.307945251464844,2142,-11842,1248,116708,1
33.34745526313782,-11847,-11910,10949,115265,1
33.38742637634277,1352,-11890,195,118351,1
33.4274218082428,2408,717,573,119163,1
33.46742033958435,-2386,13158,-81,118569,1
33.50741505622864,-5527,13518,7247,119247,1
33.547428131103516,1672,5425,-243,119006,1
33.58641862869263,4251,1705,-4412,119215,1
33.626444578170776,2895,-7831,2036,116628,1
33.666471004486084,-8885,-13265,9856,113826,1
33.706486225128174,-2582,-14123,2148,117769,1
33.74658989906311,2000,-4683,1192,118808,1
33.786481857299805,3664,4906,-1496,118929,1
33.826448917388916,-8136,18158,96,118945,1
33.86643981933594,2347,8690,7314,119276,1
33.90651226043701,-1035,2984,-2199,119346,1
33.946412563323975,3274,-3100,857,118226,1
33.98641562461853,-5141,-16094,6409,115530,1
34.0264253616333,-715,-9682,-905,117691,1
34.06653141975403,229,-2136,1396,118229,1
34.10652780532837,84,3912,2050,118590,1
34.14551401138306,-7893,14509,4445,118367,1
34.18554449081421,-3474,11008,9028,118613,1
34.22543287277222,-521,5258,-2755,118530,1
34.26542329788208,7306,-362,-5755,118550,1
34.305420875549316,1160,-27071,6445,115041,1
34.34559607505798,-20423,378,9976,115407,1
34.38547086715698,6544,-12070,1320,118065,1
34.4255735874176,3977,-536,-1442,118470,1
34.46553587913513,-1464,13499,-2810,117869,1
34.5055251121521,1402,14621,-916,118541,1
34.54540300369263,3027,5305,574,118473,1
34.58551907539368,2808,-5339,2211,116466,1
34.62578058242798,-10102,-15391,11379,114575,1
34.66448187828064,2039,-13314,-3393,117576,1
34.70458149909973,1296,-1971,1480,118035,1
34.74446177482605,-251,6586,-89,117627,1
34.78454351425171,-11366,17122,2690,117098,1
34.82449007034302,-3791,7351,5801,117802,1
34.86447286605835,561,3475,-1929,118410,1
34.90443778038025,4792,-3139,-275,118109,1
34.944751024246216,-2553,-20579,1331,114810,1
34.98454689979553,-7693,-4967,5615,116846,1
35.02447295188904,1930,-6327,924,117935,1
35.06447458267212,2417,2464,908,118559,1
35.10473895072937,-4626,14224,2005,118205,1
35.145060300827026,-3410,11980,5305,118855,1
35.183475494384766,2541,4032,174,118686,1
35.22353649139404,2551,-4476,1014,117507,1
35.26350140571594,-9477,-14630,10675,114771,1
35.30351638793945,139,-13528,-2043,118585,1
35.3442497253418,2704,-2413,-360,118653,1
35.38345742225647,2207,8301,-2888,118565,1
35.4234676361084,-6125,15822,3449,118483,1
35.46347975730896,-729,6472,3943,118520,1
35.50347948074341,2301,3832,-2850,118653,1
35.54350996017456,4610,-4177,-262,117633,1
35.58351230621338,-7318,-17854,5081,114308,1
35.62355136871338,-4007,-9131,4299,117634,1
35.6634738445282,1198,-3770,1851,118389,1
35.70245575904846,3268,6461,180,118530,1
35.743258476257324,-4144,16934,2180,118194,1
35.78277921676636,-61,10077,4880,118551,1
35.82293510437012,2259,3930,-3926,118540,1
35.86243772506714,2519,-2588,822,117357,1
35.902501821517944,-6990,-18774,5632,115207,1
35.94264483451843,-2501,-8645,6342,117980,1
35.98242902755737,1002,-4197,993,118704,1
36.02254629135132,2395,3394,-861,118788,1
36.06244897842407,-4729,13352,672,117837,1
36.10246801376343,-4608,11948,3970,118398,1
36.14243459701538,2423,3942,-2251,118683,1
36.18251419067383,1783,817,214,118692,1
36.22250175476074,-472,-18384,1417,116038,1
36.26149082183838,-8837,-5539,11686,117059,1
36.301478147506714,3203,-8646,-2147,118552,1
36.341448068618774,2212,1633,397,119022,1
36.38143491744995,-3780,9343,287,118022,1
36.421528577804565,-11054,12878,2746,118243,1
36.461403608322144,456,4998,3112,118769,1
36.501505851745605,3902,3364,-2414,119015,1
36.541423082351685,2173,-2685,192,118047,1
36.58148217201233,-3816,-18660,3203,115774,1
36.62148571014404,-6072,-4065,8832,117140,1
36.66146492958069,2509,-8279,-1586,118048,1
36.701401710510254,2135,2356,-234,118676,1
36.741467237472534,-3295,14086,710,117830,1
36.78046703338623,-5239,13403,4349,118768,1
36.82045388221741,5758,3667,-283,119018,1
36.86052703857422,1412,-2563,6,117402,1
36.90056133270264,-9243,-16923,7879,115685,1
36.94049620628357,2012,-10965,411,118640,1
36.98066282272339,1480,-1668,1353,118780,1
37.02048110961914,1561,4845,-613,118510,1
37.06044101715088,-7143,13941,2248,117776,1
37.100465536117554,-4963,8985,2682,118306,1
37.14061427116394,3843,4013,-2813,118823,1
37.18067383766174,4440,-169,80,118183,1
37.22065353393555,-2512,-20936,2223,116581,1
37.26053309440613,-13053,-1657,13787,116443,1
37.299482583999634,5499,-12294,-3630,118108,1
37.3396201133728,1029,833,1216,118324,1
37.37976384162903,1169,11794,-1234,118351,1
37.41949534416199,4300,14078,565,118777,1
37.45951461791992,4391,5411,-1069,118349,1
37.49949526786804,1160,-3423,-135,116844,1
37.53951644897461,-9062,-14582,8546,114513,1
37.57951283454895,-1386,-10140,3757,117286,1
37.619476556777954,1311,-5049,807,118128,1
37.659470319747925,1901,3257,-1185,118360,1
37.69951915740967,-6684,16135,1924,117635,1
37.739463806152344,-4289,11212,7608,118094,1
37.77948451042175,2948,4339,-2207,118322,1
37.81959652900696,6632,559,-2319,118430,1
37.858585357666016,114,-13837,-908,115533,1
37.898505449295044,-14404,-5336,13971,115252,1
37.93850350379944,1762,-12404,-101,117875,1
37.979294300079346,1038,-3283,1597,118365,1
38.01844048500061,2753,4879,-1096,118179,1
38.05844712257385,-4470,16947,-63,118020,1
38.098474979400635,3637,8164,1728,118505,1
38.13849925994873,3349,4149,-3892,118380,1
38.17857384681702,2531,-4830,-649,116949,1
38.21851301193237,-8920,-16369,9265,115610,1
38.25846767425537,-504,-7863,5076,117811,1
38.298463582992554,928,-2443,1303,118255,1
38.33909821510315,1761,3459,-1075,118200,1
38.37774586677551,-4457,13186,171,117789,1
38.417502641677856,-4182,12111,3247,118049,1
38.487019538879395,1862,3645,-3917,118294,1
38.497718811035156,2787,-1961,-50,118410,1
38.53747820854187,1097,-15918,4794,117175,1
38.57774877548218,-12317,1632,12649,115861,1
38.617544174194336,1474,-12783,-558,118454,1
38.65745401382446,1054,-4443,950,118508,1
38.697510719299316,3082,1685,-2107,118410,1
38.73749876022339,-1722,10585,-454,118095,1
38.77748250961304,-224,10470,1830,118515,1
38.81828165054321,1820,6199,469,118369,1
38.85750961303711,3194,2357,-4672,118752,1
38.89660835266113,2718,-8889,-530,117348,1
38.93656826019287,-9509,-14952,10628,116297,1
38.9764564037323,1614,-9477,3365,118483,1
39.0165331363678,938,-1669,1076,118839,1
39.05645704269409,1326,6008,-1553,118603,1
39.09649682044983,-6534,14924,1079,117951,1
39.13646197319031,-4318,9418,3723,118467,1
39.17642569541931,2821,3989,-3591,119056,1
39.21651101112366,4117,-2143,951,118428,1
39.25649976730347,-3336,-23364,3818,115673,1
39.29648804664612,-11496,122,12689,116989,1
39.33652305603027,3921,-11002,-625,118448,1
39.37642526626587,1523,-48,-237,118740,1
39.415743350982666,-366,9127,-1496,118042,1
39.45554566383362,-4616,17383,-2869,118082,1
39.49561929702759,6706,4029,-6074,118378,1
39.53563094139099,3978,1532,-2623,118488,1
39.575528383255005,-2034,-12943,2818,116216,1
39.61572289466858,-13760,-8668,18885,117780,1
39.65549397468567,3330,-8992,-213,118599,1
39.6955828666687,1262,1,615,118704,1
39.73567819595337,-1130,10171,-2405,117694,1
39.77546977996826,-7927,16026,-3584,117620,1
39.81565475463867,4253,4467,-3680,118569,1
39.85558533668518,4491,2369,487,118396,1
39.89550971984863,255,-11802,867,116615,1
39.93446946144104,-9174,-8235,17315,116635,1
39.97589874267578,1577,-9223,-1074,117596,1
40.014498710632324,685,-589,537,117770,1
40.054550647735596,-2369,9632,-3155,117215,1
40.094635009765625,-1019,14571,-5189,117785,1
40.13452363014221,4026,5982,-2542,118081,1
40.175191164016724,3624,-702,1342,117599,1
40.21448469161987,-1742,-22304,6667,115283,1
40.254541635513306,-18388,-2524,10464,116512,1
40.294538259506226,5896,-12137,2816,118262,1
40.334474325180054,2230,-230,293,118508,1
40.374534368515015,1234,10354,581,117966,1
40.414520502090454,1951,14453,5970,118326,1
40.454493284225464,2666,4340,-8461,117638,1
40.49429512023926,709,2932,-5595,118005,1
40.5335419178009,2022,-6088,-315,116481,1
40.57356357574463,-7118,-16497,10940,115142,1
40.613531827926636,-2651,-8081,8488,117085,1
40.65348529815674,311,-4090,2138,118055,1
40.693546772003174,2920,3448,-2025,118106,1
40.7335205078125,-5015,14225,-2499,117531,1
40.773499488830566,-432,10062,-837,118249,1
40.81349563598633,2714,4879,-1085,118193,1
40.8537917137146,3739,-2544,-1099,117756,1
40.893542528152466,-1317,-21511,7149,115749,1
40.933521032333374,-14054,-2019,10936,116868,1
40.97349762916565,2373,-8318,1369,118336,1
41.012484550476074,2075,-391,-242,118538,1
41.05252552032471,410,6713,-2294,117887,1
41.092524766922,-4658,17636,-837,118513,1
41.132530212402344,3366,6617,-1071,118374,1
41.172483921051025,1918,4454,-3822,118487,1
41.21248531341553,1986,-4522,-2308,117997,1
41.252814054489136,-3456,-20318,8732,116394,1
41.29250717163086,-9203,-3410,11690,117829,1
41.332529067993164,1233,-6287,1430,118507,1
41.37250375747681,2044,647,-1101,118558,1
41.412500858306885,-191,8990,-1009,118191,1
41.45264983177185,1703,12497,-11,118420,1
41.49252223968506,1945,5808,-723,118092,1
41.53250050544739,3381,4032,-2460,118522,1
41.57154059410095,2904,-4276,478,118084,1
41.611549615859985,-8606,-20676,8296,115166,1
41.65155005455017,-3842,-10018,6391,118388,1
41.69167757034302,379,-3722,1001,118785,1
41.731523275375366,4035,3985,-630,118940,1
41.77154874801636,-1879,14557,2392,118793,1
41.811474561691284,3433,9257,3180,118693,1
41.85179805755615,1116,5329,-5124,118530,1
41.891682386398315,2590,-1419,-1147,118506,1
41.931580543518066,-4454,-21691,4519,116104,1
41.97157168388367,-11654,-1426,12570,117535,1
42.01148438453674,2851,-8161,-407,118504,1
42.05166721343994,2233,-267,-1020,118820,1
42.09046268463135,1258,7506,-566,118347,1
42.130558252334595,-3726,16482,412,118676,1
42.170475482940674,5870,4737,672,118925,1
42.2105176448822,3888,4727,-2367,118937,1
42.250585317611694,1814,-3552,-2735,118300,1
42.29053854942322,-4453,-21072,5828,116894,1
42.330594539642334,-9387,-630,16589,117899,1
42.370630741119385,2597,-9410,-276,118882,1
42.41050577163696,2179,-331,-1903,118915,1
42.45050001144409,608,9134,-405,118509,1
42.49088430404663,3471,14022,609,119052,1
42.530484676361084,3385,6497,-719,118529,1
42.57054877281189,1287,2706,-4142,118744,1
42.610482931137085,1343,-5600,207,117565,1
42.64957094192505,-10587,-14072,10374,116324,1
42.689491987228394,-804,-9206,8268,118224,1
42.72959923744202,434,-5147,1275,118774,1
42.76952791213989,3527,1696,-2514,118768,1
42.80952215194702,-2771,13305,-2068,117967,1
42.84961676597595,2767,7473,-1021,118927,1
42.88959074020386,961,6187,-107,118775,1
42.929540157318115,3283,1575,-2285,119162,1
42.96953272819519,418,-4701,256,118475,1
43.00960612297058,-6017,-14564,8521,116584,1
43.04952955245972,-5254,-6059,9757,117281,1
43.08970499038696,-12,-5905,2187,117929,1
43.129507303237915,3000,-48,-1773,118282,1
43.16953659057617,1877,9223,-1864,118036,1
43.208598613739014,-441,13448,-457,118210,1
43.24851942062378,2277,6057,-725,118372,1
43.289008378982544,2126,2757,-1041,118379,1
43.32855176925659,399,-4691,-13,116481,1
43.36860990524292,-11411,-13597,10219,115909,1
43.40852999687195,2454,-11538,1166,117779,1
43.448843479156494,1728,-1488,1094,118151,1
43.48881793022156,-82,8823,-2591,117764,1
43.528621673583984,-386,13724,3856,119130,1
43.56864833831787,-682,7360,8313,118147,1
43.608540773391724,570,3084,-4762,118208,1
43.648513317108154,2549,-651,-1569,118422,1
43.688507080078125,483,-11474,906,117238,1
43.72753071784973,-11574,-4956,10325,114929,1
43.767573833465576,-4615,-11348,2638,118196,1
43.807541370391846,1076,-6722,2424,118514,1
43.84750413894653,3832,1159,-1649,118833,1
43.887487173080444,3606,13042,-675,118780,1
43.92749643325806,7375,9915,-107,118734,1
43.96754860877991,-1453,6825,2577,118258,1
44.0074987411499,28,-146,-4254,118548,1
44.047877073287964,-747,-14472,2919,116564,1
44.08765125274658,-13523,-4077,17299,116659,1
44.12753248214722,3692,-11020,57,118489,1
44.167519330978394,2190,-1727,-802,118666,1
44.20752573013306,1625,6830,-835,118076,1
44.24753451347351,-4014,15205,1085,118133,1
44.286704301834106,3404,6473,-595,118175,1
44.326658487319946,235,5020,-5927,118309,1
44.366615772247314,3801,-3156,-2488,118398,1
44.406588554382324,-2335,-22915,4522,115055,1
44.44657325744629,-14290,3326,18096,116025,1
44.48649859428406,3539,-12167,162,117261,1
44.52650761604309,2522,-1963,-1579,117752,1
44.566505670547485,2316,8146,-676,117534,1
44.606523275375366,1559,16287,-5102,117718,1
44.64681839942932,4923,6461,-2117,117818,1
44.68653130531311,1842,313,-661,117341,1
44.72680401802063,-4763,-15897,5771,114643,1
44.76675295829773,-8629,-6967,12828,116821,1
44.806562662124634,2163,-5875,-517,117947,1
44.845515727996826,2097,2044,-1008,118117,1
44.88570785522461,-2161,10183,-1442,117449,1
44.92593789100647,982,11569,-1940,118255,1
44.96567153930664,3800,6197,-1843,118317,1
45.0055193901062,2409,-1243,-2472,117563,1
45.04557824134827,-3624,-18573,6332,115303,1
45.085559606552124,-11430,-3153,15945,116729,1
45.125571727752686,1342,-8176,667,118011,1
45.165590047836304,1210,892,-950,117886,1
45.20560550689697,-3713,11964,-1908,117360,1
45.24556851387024,3102,11043,-4813,118202,1
45.28570508956909,5242,5185,-2992,118313,1
45.32557702064514,2521,-1155,1303,117407,1
45.364593505859375,-6467,-20773,2432,114719,1
45.40457272529602,-6758,-5489,10458,116770,1
45.444579124450684,2622,-6552,-1404,117551,1
45.48453116416931,2195,2080,833,117965,1
45.52468299865723,-2117,10633,190,116619,1
45.564614057540894,-7447,14631,4064,116796,1
45.60456657409668,-596,4725,-2195,116920,1
45.644551038742065,2330,1363,-4380,117500,1
45.68455386161804,1984,-7177,954,116015,1
45.72533297538757,-8473,-14077,11746,114320,1
45.76458525657654,-1926,-11220,5038,116807,1
45.80457401275635,892,-3598,630,117641,1
45.84468603134155,3742,3775,-1098,117785,1
45.88361716270447,2264,16480,-2800,117617,1
45.92358946800232,5935,8539,-1175,117730,1
45.96369433403015,1845,4500,-2173,117709,1
46.00365233421326,736,-5534,-1437,116303,1
46.04362893104553,-10259,-15686,10568,115018,1
46.08369469642639,-2366,-8033,7522,117197,1
46.12349271774292,367,-4411,1520,117691,1
46.163578510284424,1853,1752,-1178,117752,1
46.20421814918518,-1143,11153,-870,117135,1
46.243534564971924,537,12150,-4462,117413,1
46.28355383872986,5043,4756,-4809,117635,1
46.323535203933716,3355,-1732,-1141,117442,1
46.36371302604675,-2118,-19741,3241,116462,1
46.4035370349884,-12822,478,18172,117458,1
46.44257473945618,4081,-16214,-838,116859,1
46.48255443572998,892,-3394,1937,116872,1
46.52251982688904,2983,4388,-2448,116631,1
46.56383919715881,-5931,15509,-1095,115827,1
46.60257530212402,2107,6789,-3233,116787,1
46.64331912994385,2219,4764,-4504,116956,1
46.682565689086914,3163,-1904,-691,116432,1
46.722564935684204,-6181,-18592,4701,113674,1
46.764416456222534,-6308,-6416,10775,116011,1
46.8025689125061,2047,-5504,423,117047,1
46.842557430267334,3279,1941,126,117374,1
46.88258481025696,-106,11622,-1761,116942,1
46.92258977890015,1125,13138,-2675,116963,1
46.9616277217865,1221,5914,-2780,117016,1
47.001556158065796,2143,-1269,-688,116711,1
47.041603803634644,-3878,-21271,6585,114366,1
47.08177947998047,-13192,-4404,15124,115744,1
47.12157392501831,1837,-8583,646,116915,1
47.161978244781494,1972,-942,-297,117067,1
47.20169734954834,3209,8676,-2480,117312,1
47.241602182388306,12215,10173,-5671,117414,1
47.28158259391785,645,6759,-4642,116977,1
47.32152605056763,2046,844,-3193,117204,1
47.3616738319397,-1040,-10506,2017,115526,1
47.40161633491516,-12139,-9016,20922,115174,1
47.44170618057251,2709,-10137,-359,116883,1
47.481752157211304,1759,-636,2,117198,1
47.52129077911377,1044,5284,19,116892,1
47.56071853637695,-397,10773,-3073,116414,1
47.600624322891235,298,7105,-6892,116402,1
47.64055275917053,1366,5674,-3399,116793,1
47.68136382102966,5244,-2398,-4554,116811,1
47.720736026763916,-2974,-17104,6781,114648,1
47.76056742668152,-15374,-523,20629,115432,1
47.80058670043945,2562,-8321,2838,117167,1
47.84061360359192,3092,-1431,15,117258,1
47.880563735961914,347,2764,-934,116537,1
47.92057919502258,2701,9403,-11076,116801,1
47.9605770111084,4086,3136,-13656,116316,1
48.00059652328491,1395,2193,-1271,116789,1
48.039652585983276,2727,-4806,2050,116272,1
48.07967495918274,-3554,-15969,10038,114619,1
48.12013792991638,-9435,-3730,11908,115805,1
48.15964078903198,1333,-5925,1367,117161,1
48.19955539703369,2251,-349,348,117518,1
48.23957300186157,-181,5355,-202,117084,1
48.279574155807495,-6981,11970,-1903,116587,1
48.31960082054138,837,7268,-3080,117186,1
48.35953736305237,3721,5297,-981,117284,1
48.399590492248535,3745,-259,-840,117191,1
48.43955612182617,88,-15391,-835,115727,1
48.47961473464966,-14626,-4037,14377,114891,1
48.5195689201355,2274,-13198,730,117467,1
48.55880093574524,-391,-3153,1094,117538,1
48.598541498184204,1946,1383,1459,117777,1
48.69696640968323,9364,11495,-5201,118234,1
48.70130014419556,13098,3732,-3959,116902,1
48.71881675720215,-816,4120,210,116905,1
48.758588552474976,992,-5745,-2287,116294,1
48.79870319366455,-9034,-15768,14060,114110,1
48.83861947059631,-5893,-7119,12810,115420,1
48.878544092178345,655,-4981,395,115339,1
48.91874027252197,980,1501,-444,115411,1
48.958611726760864,8520,10666,-9998,116572,1
48.9986457824707,5292,5141,-7467,115664,1
49.038525104522705,1262,1633,413,115996,1
49.078540086746216,328,-18248,2089,115110,1
49.117605447769165,-14832,-4204,15512,116363,1
49.15771245956421,4913,-10171,2236,116021,1
49.19784593582153,-409,-2539,891,116022,1
49.237539529800415,716,1690,-790,115884,1
49.277581453323364,-3674,6840,-1082,115278,1
49.3175585269928,188,9470,-10929,116424,1
49.357574224472046,2924,4544,-7538,116179,1
49.398085832595825,3043,2249,-3794,116510,1
49.43760657310486,2447,-6298,-2202,116014,1
49.47763466835022,-3327,-19977,12883,116275,1
49.51760959625244,-10435,-4418,14466,116644,1
49.55761647224426,1132,-6283,-359,116406,1
49.597623109817505,1540,-46,-811,116026,1
49.63654804229736,1241,5288,283,116050,1
49.676605224609375,9683,10830,-4443,117320,1
49.71655511856079,6148,5172,-2599,116349,1
49.75663352012634,776,595,-2191,116465,1
49.796780586242676,-1436,-11302,1608,114843,1
49.83659911155701,-11483,-7674,15717,115009,1
49.87663650512695,1858,-8656,842,116631,1
49.91658544540405,717,-876,1751,116824,1
49.95659780502319,-836,5837,-1780,116187,1
49.996588945388794,-5328,13313,-3036,116086,1
50.03657007217407,5971,3582,-7014,116616,1
50.076584577560425,4738,2782,-4446,116672,1
50.11659336090088,3964,-6258,1205,116399,1
50.15563941001892,-6068,-20045,11690,114380,1
50.19584012031555,-11267,-86,11293,115648,1
50.23555326461792,2981,-7522,665,116770,1
50.27559947967529,431,-788,338,116798,1
50.315590381622314,-219,4655,-2101,116217,1
50.355615854263306,-830,16514,-8553,116888,1
50.39556813240051,5446,4667,-6695,116535,1
50.43560814857483,2099,3855,1350,116984,1
50.47572302818298,1646,-4357,1211,116049,1
50.515685081481934,-9155,-17958,7112,116838,1
50.55558967590332,-3298,-6786,11963,118207,1
50.595595598220825,2242,-5518,69,117869,1
50.6363263130188,2484,2516,120,117932,1
50.67555618286133,-660,8580,-745,117089,1
50.714592695236206,-6995,13380,879,116538,1
50.75457954406738,-139,3691,-6756,117207,1
50.794559478759766,4559,2440,-2414,118133,1
50.834773778915405,6121,-3882,1955,117576,1
50.87466335296631,-5671,-23968,6070,114391,1
50.91460609436035,-16946,886,12390,115719,1
50.95459246635437,3609,-8803,4406,117177,1
50.99460315704346,2240,-1569,-742,117340,1
51.03464198112488,1870,8611,-2282,117104,1
51.07458686828613,2774,14608,-7200,117254,1
51.114577293395996,2833,5491,-6138,116808,1
51.154618978500366,2243,2130,-1111,117330,1
51.194594383239746,-1963,-17152,2357,115548,1
51.23419213294983,-12137,-7207,20595,115713,1
51.27358436584473,2821,-6849,-60,117213,1
51.31374526023865,1856,410,776,117516,1
51.3537437915802,970,2564,-850,117295,1
51.3935923576355,-3380,6816,-3252,116222,1
51.433701515197754,-7950,7446,-6461,116282,1
51.4735963344574,-252,3469,-6601,116983,1
51.51357316970825,4628,1155,-1985,117434,1
51.55360722541809,3369,-3635,2314,117133,1
51.59362483024597,-2000,-20222,8689,115411,1
51.633636713027954,-18157,2978,15201,115216,1
51.67360472679138,4301,-10418,3127,117504,1
51.71386528015137,670,-2994,817,117431,1
51.75257229804993,1429,2694,-1265,117080,1
51.79261803627014,1437,14052,-4238,117287,1
51.8327739238739,10329,3241,-5559,117112,1
51.872615337371826,-226,4269,-1278,116700,1
51.91258215904236,2224,-1634,-1830,116833,1
51.952627182006836,-3194,-11871,1496,115079,1
51.99266481399536,-11844,-4673,17256,115021,1
52.03256273269653,605,-9146,1343,116491,1
52.072606325149536,584,-2670,1438,116609,1
52.112629890441895,2340,890,-447,116592,1
52.152615547180176,6246,11096,-5739,117240,1
52.19260597229004,12137,4307,-6193,116774,1
52.23264479637146,-661,4833,-1119,116197,1
52.27346324920654,2731,-3278,-3182,116322,1
52.31167960166931,-5130,-17156,6484,115048,1
52.351749658584595,-13031,-3302,20323,115454,1
52.39159870147705,1729,-9720,-583,116112,1
52.43157339096069,669,-1836,-73,116182,1
52.471604347229004,180,4536,-1722,116053,1
52.511839866638184,5724,9389,-5945,116886,1
52.551634550094604,8733,3991,-6994,116711,1
52.591644048690796,2529,1729,-4744,116623,1
52.63161039352417,1697,-5496,-1215,115862,1
52.67207860946655,-7551,-16665,9078,115495,1
52.71182298660278,-8507,-1380,17598,116233,1
52.751601457595825,693,-6986,894,116426,1
52.79161357879639,1733,-2171,556,116733,1
52.83070755004883,1336,1234,-887,116317,1
52.87091279029846,-1990,6322,-1705,115648,1
52.91166567802429,421,8215,-8682,116355,1
52.950610876083374,2599,4565,-7107,116526,1
52.990631103515625,3077,2839,-2089,116931,1
53.0306351184845,2595,-4833,-1282,116226,1
53.07075238227844,-4520,-15677,9475,114017,1
53.11065864562988,-10129,-3583,14951,114727,1
53.15060257911682,646,-7286,1264,115925,1
53.190627336502075,2666,-899,-234,116300,1
53.230648040771484,-829,7098,-482,115501,1
53.27061104774475,-5253,13904,-4115,115724,1
53.310600996017456,3981,4163,-7138,116571,1
53.34963130950928,3306,3600,-172,117081,1
53.38962483406067,3865,-3452,749,116512,1
53.42965745925903,-3441,-18511,4617,114367,1
53.46969199180603,-11611,-2117,12378,115678,1
53.509618043899536,2528,-8061,1759,117014,1
53.54960918426514,1722,-652,630,117246,1
53.58957839012146,886,5725,263,116719,1
53.62966990470886,-5817,12938,-2212,115823,1
53.66966533660889,-1419,5700,-6046,116450,1
53.70965313911438,2092,2701,-2842,117012,1
53.7496771812439,3461,-1591,1575,116980,1
53.78967881202698,-1226,-17014,3428,114980,1
53.82960820198059,-9141,-3783,13792,114848,1
53.869617223739624,3988,-8733,-37,116808,1
53.90860414505005,895,-400,1765,116979,1
53.948668003082275,606,7477,-2716,116947,1
53.98864769935608,-1806,12842,-6922,116956,1
54.02861285209656,2088,3858,-7113,117184,1
54.068604469299316,3084,-2016,1188,117473,1
54.10862731933594,-176,-14982,8100,114974,1
54.14865446090698,-15157,-2746,10935,114802,1
54.18861365318298,4721,-8489,1368,116607,1
54.22859811782837,1117,-1219,978,116646,1
54.26861047744751,1822,2752,-131,116640,1
54.30877494812012,-4074,9144,-646,115650,1
54.348626375198364,-3978,10304,-5483,116193,1
54.38864517211914,2946,2481,-8263,116622,1
54.427582025527954,1890,625,259,117224,1
54.46760416030884,4824,-11443,2395,116045,1
54.50788474082947,-9273,-11036,17510,114161,1
54.54766631126404,-1934,-13796,461,116443,1
54.587626218795776,1924,-2454,1958,116623,1
54.62763786315918,2531,5032,-1485,116803,1
54.667670249938965,5865,11864,-8280,116805,1
54.70826315879822,91,6673,-8310,116446,1
54.747668981552124,7,-484,-2230,116656,1
54.78769516944885,866,-15895,7635,115089,1
54.82767295837402,-14074,-3004,15168,114694,1
54.867605447769165,4420,-10454,424,116750,1
54.9077308177948,1469,-1953,1407,116921,1
54.94664120674133,1148,2032,1006,116902,1
54.98668622970581,-2199,9873,-1670,116678,1
55.02669095993042,-3379,14212,-4735,116722,1
55.06662607192993,26,4078,-5508,116938,1
55.10682201385498,841,-289,245,117464,1
55.14669156074524,1827,-16427,2009,115808,1
55.18670034408569,-11874,-6513,14702,113971,1
55.22666692733765,4058,-11810,2190,116871,1
55.26665782928467,1171,-1977,988,116741,1
55.306787729263306,-60,4809,571,116643,1
55.346649408340454,898,12627,-5784,116568,1
55.38675355911255,4708,3814,-10127,116335,1
55.42664408683777,368,1223,-3621,116706,1
55.46559286117554,2952,-9486,1804,115805,1
55.50567889213562,-6932,-14645,14825,113773,1
55.545588970184326,-4052,-8091,6051,116111,1
55.585612297058105,3073,-4800,396,116689,1
55.625601053237915,108,2054,483,116790,1
55.665655851364136,-603,12232,-4982,116416,1
55.70560884475708,-1028,9926,-9335,116240,1
55.745622634887695,108,3997,-2761,116764,1
55.785630226135254,4059,-4578,291,116952,1
55.82561659812927,281,-20332,8077,114711,1
55.86565613746643,-14880,1938,13539,114927,1
55.90564155578613,4745,-10436,1642,116938,1
55.945700883865356,-282,-2799,1176,117101,1
55.98468065261841,1297,2746,-1068,117085,1
56.0246376991272,-2985,9947,-827,116724,1
56.06466746330261,292,9933,-6913,116810,1
56.10463047027588,1756,2670,-6288,116934,1
56.14461708068848,1747,1183,2394,117513,1
56.185003995895386,1081,-7255,285,116679,1
56.22465205192566,-7909,-9542,12853,114777,1
56.264678716659546,-3142,-9772,6317,116267,1
56.304622650146484,1640,-4862,388,117052,1
56.344669818878174,3244,3540,-1652,117256,1
56.3846869468689,-2320,14895,-2710,116734,1
56.424697399139404,-949,7570,-4657,116898,1
56.46464490890503,2361,2826,-3222,117106,1
56.503618240356445,1594,-1993,373,116995,1
56.54368352890015,-2196,-15544,2390,114983,1
56.58369827270508,-10139,-2628,12989,115094,1
56.62362718582153,3565,-8672,11,116787,1
56.66365098953247,1256,169,2120,117159,1
56.7036190032959,3130,6947,744,117271,1
56.743916034698486,-4235,12608,834,116532,1
56.78366994857788,-3715,6407,-3181,116577,1
56.823678970336914,81,1413,-3827,117055,1
56.86368727684021,2268,-2098,2188,116979,1
56.90364336967468,896,-11547,3700,115395,1
56.943683385849,-9491,-3696,13366,114496,1
56.98364305496216,2832,-9189,880,116510,1
57.022674798965454,1849,-1447,950,116875,1
57.062636613845825,1886,5897,-822,116685,1
57.103172063827515,-545,12393,-4863,116156,1
57.14297676086426,-976,5615,-8884,116172,1
57.18264651298523,1013,1468,-3004,116867,1
57.22272062301636,2158,-6838,2047,115922,1
57.26266527175903,-9163,-11761,13515,114621,1
57.30265140533447,718,-9131,3406,116517,1
57.34305238723755,1359,-2443,2205,116706,1
57.38266348838806,2396,3539,-730,116748,1
57.422749280929565,-2601,12360,-1352,116185,1
57.462669134140015,-2188,8460,-6971,116032,1
57.50264573097229,876,2147,-6480,116643,1
57.5426766872406,3442,-3134,2533,116649,1
57.58207130432129,-1224,-19633,6173,114951,1
57.62166929244995,-14215,-2561,15762,114650,1
57.66173052787781,7994,-13578,-1412,116347,1
57.701672315597534,256,-208,2207,115944,1
57.74161243438721,-957,6932,282,115429,1
57.78168225288391,-1662,14207,-9804,115773,1
57.82165813446045,3615,3879,-8985,116135,1
57.86164379119873,2559,1173,-2852,116685,1
57.90195870399475,2409,-9530,342,115585,1
57.94172120094299,-6923,-14623,15598,114424,1
57.98176026344299,-4658,-6747,9348,116174,1
58.02163314819336,1317,-4639,2169,116802,1
58.061829805374146,831,-473,284,117190,1
58.10065197944641,-281,6537,-3478,116704,1
58.14082074165344,-5841,10512,-7075,115984,1
58.18082284927368,669,2775,-13958,116438,1
58.220651388168335,2074,385,-219,117064,1
58.260672092437744,4907,-8977,2965,115727,1
58.300660371780396,-6255,-17023,13950,114771,1
58.34071087837219,-8468,-5756,10439,115627,1
58.380693435668945,3003,-6755,1474,116031,1
58.42065620422363,148,394,1285,116201,1
58.46068477630615,370,6193,-2407,115289,1
58.50066804885864,-4414,14679,-5960,115249,1
58.540733098983765,1554,3996,-10841,115488,1
58.579750776290894,1336,1613,894,116129,1
58.61969208717346,3475,-8410,1231,115009,1
58.65970802307129,-6011,-14316,11435,112945,1
58.69967532157898,-5438,-6028,8215,114845,1
58.7607421875,3175,-4861,2543,115586,1
58.77966594696045,1817,-385,665,115974,1
58.81966257095337,-120,5618,-730,115543,1
58.85968852043152,-5855,10162,-1488,114808,1
58.899712800979614,-5502,5758,-7852,115120,1
58.939690351486206,930,1515,-3895,116585,1
58.980433225631714,6613,-4912,2207,116639,1
59.019681215286255,1387,-13923,5469,114730,1
59.05971431732178,-15017,-1658,9584,113455,1
59.098687171936035,-536,-11656,5290,116026,1
59.13870811462402,1326,-6691,1500,115840,1
59.17906308174133,448,101,-41,116084,1
59.21929216384888,-724,5952,-1597,115463,1
59.25867033004761,582,10702,-9116,116121,1
59.29865789413452,4798,1969,-11882,116187,1
59.33863067626953,2424,-779,-473,116641,1
59.37989068031311,2230,-7865,2477,115777,1
59.41867780685425,-5076,-13502,9298,113601,1
59.45878553390503,-9725,-2699,11110,115132,1
59.498650312423706,2546,-6715,2464,116076,1
59.53865694999695,875,-2304,1326,116302,1
59.578630447387695,2304,654,940,116321,1
59.61776518821716,-1014,4180,-736,115629,1
59.65770387649536,-7693,9050,-988,114745,1
59.697674036026,-5251,6504,-6966,115444,1
59.73771929740906,2063,2413,-4156,116612,1
59.77765679359436,5448,-2279,2308,116744,1
59.81773638725281,-740,-18701,4568,114824,1
59.85774779319763,-11629,-2206,18357,114740,1
59.89773178100586,6661,-12885,-3525,116246,1
59.937638998031616,529,-970,1806,116202,1
59.97767615318298,4245,4366,-1775,116311,1
60.017680168151855,4144,11780,-6559,116262,2
60.05771827697754,2410,4698,-6477,115926,2
60.097710609436035,-519,2731,-2925,116211,2
60.136695861816406,2726,-3950,-419,116256,2
60.17679691314697,-1782,-13822,5499,114312,2
60.21675753593445,-8183,-3901,17364,114298,2
60.25666904449463,2510,-9536,404,116097,2
60.2966845035553,852,-1857,2307,116284,2
60.33669066429138,1798,3280,-524,116232,2
60.37675619125366,-4874,10318,-1093,115624,2
60.416744232177734,-1416,5823,-7912,116162,2
60.45679783821106,4287,729,-7689,116817,2
60.49667525291443,3181,-1826,1494,116947,2
60.536661863327026,-836,-12369,4395,114939,2
60.57673168182373,-9849,-4284,13464,113822,2
60.61699199676514,2842,-6717,2586,115482,2
60.655665159225464,1481,-1525,1361,115892,2
60.69567942619324,1877,616,109,116264,2
60.735680103302,1374,1821,281,116284,2
60.77591156959534,-842,2233,652,116149,2
60.81587529182434,-1693,1713,744,116040,2
60.85574412345886,-3104,1718,2223,116081,2
60.89570116996765,-2178,1276,1716,116185,2
60.935686349868774,-1467,965,1060,116146,2
60.97565150260925,-432,429,561,116057,2
61.015740156173706,-192,88,627,116045,2
61.055782318115234,-629,239,881,116060,2
61.09590554237366,-673,304,810,116123,2
61.13574242591858,-666,-165,1092,116117,2
61.17468237876892,-1306,-795,1417,115874,2
61.21509885787964,-2131,-1222,1423,115653,2
61.25490427017212,-2370,-1263,1256,115539,2
61.294700145721436,-2331,-917,1642,115553,2
61.33466029167175,-1923,-839,1668,115610,2
61.37471127510071,-1381,-721,2158,115590,2
61.41470670700073,-542,-780,2771,115409,2
61.45467567443848,-588,-478,2988,115201,2
61.49473524093628,-1290,-176,2728,115011,2
61.534703493118286,-1484,13,2147,115079,2
61.5747127532959,-1469,-177,2038,115243,2
61.614834785461426,-1271,-600,1979,115402,2
61.6537709236145,-1468,-840,2104,115417,2
61.69431161880493,-1485,-505,2039,115447,2
61.733826875686646,-1465,-218,1789,115605,2
61.77366924285889,-1286,-929,1549,115747,2
61.813939332962036,-1233,-1753,1648,115769,2
61.85383319854736,-962,-1863,1727,115695,2
61.893755197525024,-748,-1438,1435,115444,2
61.93382382392883,-666,-1181,1162,115368,2
61.97380542755127,-644,-1132,1119,115463,2
62.01372194290161,-557,-1182,1151,115609,2
62.05371713638306,-696,-1307,1333,115708,2
62.09368896484375,-570,-1280,1398,115805,2
62.133716344833374,-354,-1150,1437,115845,2
62.17377996444702,-497,-1035,1582,115870,2
62.212934732437134,-521,-1043,1538,115898,2
62.25267243385315,-686,-1058,1537,115931,2
62.29282593727112,-841,-1137,1621,115946,2
62.33269739151001,-1105,-1146,1953,115872,2
62.37270641326904,-1265,-861,2067,115600,2
62.412707567214966,-1262,-747,1474,115365,2
62.4527850151062,-1166,-1015,921,115305,2
62.49270963668823,-1108,-1035,1344,115297,2
62.532883644104004,-1233,-1023,1720,115295,2
62.57274842262268,-1369,-1066,1545,115341,2
62.6127073764801,-1482,-1246,1666,115262,2
62.65307259559631,-1379,-887,2109,115218,2
62.692750453948975,-1332,-960,1693,115295,2
62.731744050979614,-1129,-1310,912,115481,2
62.771708250045776,-966,-1323,1070,115497,2
62.81171250343323,-889,-1314,1477,115508,2
62.851943254470825,-821,-1328,1538,115388,2
62.89168739318848,-731,-1287,1368,115206,2
62.93174862861633,-701,-1217,1294,115133,2
62.97181510925293,-615,-1186,1155,115241,2
63.01172161102295,-521,-1240,1105,115366,2
63.05284404754639,-616,-1266,1355,115449,2
63.09170889854431,-696,-1143,1517,115510,2
63.13176512718201,-781,-1061,1532,115537,2
63.171738624572754,-884,-1057,1444,115576,2
63.21171307563782,-1052,-1127,1485,115624,2
63.250921964645386,-1354,-1119,1596,115621,2
63.29069781303406,-1475,-1090,1524,115678,2
63.33070731163025,-1334,-1076,1465,115762,2
63.37069320678711,-1173,-975,1481,115637,2
63.4108099937439,-1110,-901,1532,115462,2
63.4512414932251,-1089,-1016,1433,115404,2
63.49071168899536,-1089,-1143,1253,115477,2
63.530685901641846,-1074,-1193,1338,115578,2
63.57070517539978,-1066,-1073,1427,115626,2
63.6106903553009,-1186,-954,1381,115652,2
63.65071153640747,-1079,-1175,1133,115674,2
63.690698862075806,-865,-1325,1074,115716,2
63.730737924575806,-870,-1112,1397,115730,2
63.76969623565674,-968,-871,1472,115761,2
63.809701681137085,-1239,-879,1490,115777,2
63.84975457191467,-1410,-1036,1492,115682,2
63.88975405693054,-1524,-1125,1383,115432,2
63.92975306510925,-1292,-1129,1455,115271,2
63.96973729133606,-1044,-1112,1245,115315,2
64.00971388816833,-877,-1037,1230,115431,2
64.04970216751099,-862,-1029,1344,115545,2
64.08978056907654,-1067,-1121,1301,115573,2
64.12978076934814,-1250,-1119,1275,115581,2
64.16980361938477,-1162,-1109,1374,115578,2
64.20972442626953,-1050,-1042,1363,115635,2
64.24968266487122,-997,-994,1202,115717,2
64.28872537612915,-936,-940,1225,115776,2
64.3287034034729,-1074,-948,1347,115781,2
64.368807554245,-1269,-960,1258,115579,2
64.40895009040833,-1286,-913,1362,115310,2
64.44874024391174,-1324,-929,1548,115160,2
64.48876810073853,-1385,-983,1490,115156,2
64.52870273590088,-1356,-1013,1466,115215,2
64.56874418258667,-1295,-1108,1339,115346,2
64.6090362071991,-1202,-1101,1207,115414,2
64.64872288703918,-1229,-1052,1236,115486,2
64.68951177597046,-1353,-1012,1382,115510,2
64.72890758514404,-1518,-988,1352,115576,2
64.76870036125183,-1383,-1138,1162,115697,2
64.80774116516113,-1216,-1195,1163,115864,2
64.84772324562073,-1114,-1131,1262,115990,2
64.88778114318848,-1109,-1074,1220,115891,2
64.92784261703491,-1269,-1016,1276,115541,2
64.96775579452515,-1417,-885,1190,115388,2
65.00776076316833,-1457,-815,1047,115438,2
65.04773163795471,-1527,-787,921,115533,2
65.08813714981079,-1514,-825,853,115609,2
65.12782001495361,-1610,-1030,860,115600,2
65.1680257320404,-1759,-957,827,115612,2
65.20771145820618,-1783,-939,822,115647,2
65.247722864151,-1527,-1000,746,115750,2
65.28838396072388,-1477,-970,801,115780,2
65.32676577568054,-1646,-937,873,115773,2
65.36675310134888,-1908,-916,884,115740,2
65.40672087669373,-2090,-970,870,115683,2
65.4467134475708,-1999,-934,729,115423,2
65.48670721054077,-1707,-825,678,115264,2
65.52672600746155,-1641,-772,578,115322,2
65.56673836708069,-1697,-752,479,115469,2
65.60674333572388,-1675,-783,430,115626,2
65.64674282073975,-1740,-809,333,115695,2
65.68685388565063,-1911,-778,261,115747,2
65.72688126564026,-1931,-779,229,115798,2
65.76677894592285,-1756,-784,201,115863,2
65.80674624443054,-1763,-718,250,115853,2
65.84574055671692,-1954,-690,306,115841,2
65.88705849647522,-1765,-636,309,115905,2
65.92583322525024,-1639,-597,403,115910,2
65.9658088684082,-1860,-573,422,115649,2
66.00572776794434,-1919,-619,373,115432,2
66.04576587677002,-1849,-595,405,115435,2
66.08574271202087,-1789,-598,481,115535,2
66.12576723098755,-1893,-587,312,115669,2
66.16570734977722,-1929,-593,283,115832,2
66.2057237625122,-1898,-589,329,115882,2
66.24576234817505,-1905,-527,317,115928,2
66.28573703765869,-1884,-486,385,115936,2
66.32474040985107,-1934,-487,486,115877,2
66.3646981716156,-2047,-593,163,115928,2
66.40475654602051,-2034,-507,270,116010,2
66.44471859931946,-1918,-552,284,115976,2
66.4847366809845,-1984,-467,281,115658,2
66.52472996711731,-1921,-501,225,115470,2
66.5647988319397,-1880,-502,227,115417,2
66.60472846031189,-1887,-570,155,115490,2
66.64475226402283,-1993,-554,218,115509,2
66.68530559539795,-2068,-534,230,115615,2
66.72536039352417,-1902,-504,244,115663,2
66.76472735404968,-1851,-486,303,115674,2
66.80473184585571,-2002,-510,237,115667,2
66.84369015693665,-2037,-489,144,115687,2
66.88377833366394,-1948,-523,265,115665,2
66.92376375198364,-2002,-467,195,115590,2
66.96374225616455,-1846,-452,285,115436,2
67.00377321243286,-2015,-437,271,115061,2
67.04372501373291,-2048,-483,242,114867,2
67.0837914943695,-1866,-483,245,114823,2
67.12448453903198,-1918,-492,265,114792,2
67.16372299194336,-1942,-420,241,114837,2
67.20376825332642,-1880,-439,253,114873,2
67.24376893043518,-1987,-423,249,114939,2
67.28374242782593,-2007,-476,225,114931,2
67.32374739646912,-2082,-482,184,115001,2
67.36374926567078,-2025,-499,188,115191,2
67.40279698371887,-1832,-549,111,115363,2
67.44273042678833,-1850,-482,99,115451,2
67.48274254798889,-1948,-521,48,115532,2
67.52278256416321,-1866,-510,68,115433,2
67.56276655197144,-1964,-397,67,115229,2
67.60291337966919,-2020,-466,-113,115281,2
67.64277005195618,-1978,-522,-115,115467,2
67.6827597618103,-1931,-541,-47,115602,2
67.72294402122498,-1957,-500,-20,115729,2
67.76287412643433,-2026,-604,30,115847,2
67.80288171768188,-1909,-638,-40,115901,2
67.84333801269531,-1994,-716,-146,115931,2
67.88273334503174,-2008,-749,-183,115978,2
67.92286491394043,-1972,-718,-192,116066,2
67.96180057525635,-1893,-714,-128,116167,2
68.00181245803833,-1840,-693,-79,116262,2
68.041752576828,-1857,-717,-49,116178,2
68.08175945281982,-1894,-727,-125,115940,2
68.12197995185852,-2053,-688,-140,115787,2
68.16173958778381,-2014,-660,-80,115831,2
68.20179319381714,-2068,-611,-35,115929,2
68.2418212890625,-1927,-568,21,116028,2
68.28180646896362,-1850,-539,231,116059,2
68.32178997993469,-1934,-511,352,116093,2
68.3617627620697,-1997,-502,343,116064,2
68.4017915725708,-2042,-493,372,116109,2
68.44176936149597,-2003,-446,379,116160,2
68.48082613945007,-2091,-410,343,116201,2
68.52082562446594,-2241,-409,244,116276,2
68.56075763702393,-2012,-379,326,116362,2
68.60085225105286,-1878,-312,469,116273,2
68.64142441749573,-1776,-198,534,116039,2
68.68076157569885,-1464,-175,685,115933,2
68.72079420089722,-1421,-199,905,115923,2
68.76087474822998,-1466,-166,1110,115955,2
68.8008348941803,-1503,-168,1110,116010,2
68.87982225418091,-1359,-206,1148,116038,2
68.88246393203735,-1426,-230,1264,116049,2
68.92106509208679,-1490,-243,1361,116015,2
68.96159482002258,-1516,-314,1418,116020,2
69.00079011917114,-1556,-348,1390,116068,2
69.03981733322144,-1481,-401,1399,116135,2
69.07978653907776,-1391,-413,1398,116192,2
69.119793176651,-1410,-465,1442,116199,2
69.16047978401184,-1467,-499,1431,116077,2
69.19978737831116,-1252,-541,1472,115873,2
69.2397768497467,-937,-612,1388,115863,2
69.27979516983032,-824,-672,1426,115882,2
69.31985354423523,-662,-861,1377,115946,2
69.3597903251648,-735,-988,1408,115964,2
69.39982438087463,-783,-1138,1462,115931,2
69.43981909751892,-954,-1222,1475,115925,2
69.47983908653259,-900,-1299,1403,115909,2
69.51976346969604,-845,-1373,1421,115919,2
69.55977892875671,-797,-1484,1376,115923,2
69.59995746612549,-839,-1575,1393,115945,2
69.63879704475403,-859,-1594,1484,115954,2
69.67877960205078,-834,-1585,1518,115941,2
69.71888828277588,-849,-1552,1511,115828,2
69.75931477546692,-847,-1530,1483,115564,2
69.79945683479309,-800,-1507,1419,115429,2
69.83881044387817,-713,-1546,1428,115415,2
69.8787829875946,-676,-1537,1366,115463,2
69.91942524909973,-582,-1578,1282,115586,2
69.95881152153015,-486,-1603,1228,115642,2
69.99881148338318,-470,-1630,1137,115632,2
70.03944134712219,-450,-1655,1061,115635,2
70.07881689071655,-474,-1668,1080,115662,2
70.1178731918335,-499,-1686,1100,115697,2
70.15789151191711,-473,-1728,1015,115770,2
70.1977858543396,-471,-1724,827,115887,2
70.23781991004944,-528,-1714,785,116076,2
70.27785634994507,-570,-1723,936,116212,2
70.31782674789429,-611,-1693,915,116166,2
70.35778903961182,-723,-1765,856,116045,2
70.39784216880798,-686,-1808,734,115960,2
70.43779277801514,-779,-1807,722,115843,2
70.47779059410095,-746,-1846,648,115789,2
70.51778554916382,-718,-1851,655,115686,2
70.55778193473816,-686,-1867,597,115673,2
70.5983567237854,-653,-1814,659,115705,2
70.63679003715515,-672,-1865,641,115820,2
70.67690992355347,-714,-1911,507,115965,2
70.71698784828186,-684,-1925,487,116074,2
70.75685787200928,-655,-1872,518,116079,2
70.79695796966553,-627,-1921,499,116007,2
70.83706855773926,-603,-1860,460,115904,2
70.87707734107971,-610,-1882,415,115676,2
70.91683435440063,-611,-1885,489,115545,2
70.95678973197937,-639,-1942,482,115508,2
70.99687600135803,-643,-1965,455,115544,2
71.03682708740234,-659,-1945,398,115608,2
71.07681369781494,-649,-1879,456,115665,2
71.11680603027344,-616,-1843,411,115710,2
71.15579581260681,-584,-1849,394,115713,2
71.19610595703125,-616,-1802,479,115747,2
71.23577833175659,-656,-1817,543,115785,2
71.27582907676697,-672,-1839,565,115856,2
71.31576037406921,-669,-1826,507,115897,2
71.3557755947113,-629,-1797,432,115924,2
71.39583778381348,-552,-1758,495,115736,2
71.43576383590698,-561,-1862,553,115508,2
71.47578835487366,-605,-2012,658,115320,2
71.51577425003052,-764,-2014,805,115277,2
71.55577373504639,-851,-1952,909,115328,2
71.59575271606445,-866,-1884,832,115403,2
71.63576865196228,-806,-1765,790,115467,2
71.67481970787048,-676,-1837,876,115489,2
71.71480894088745,-668,-1581,908,115513,2
71.75482225418091,-571,-1623,620,115622,2
71.79520034790039,-403,-1738,636,115741,2
71.83482241630554,-372,-1865,791,115779,2
71.87475562095642,-620,-1610,984,115767,2
71.91477990150452,-820,-1561,926,115711,2
71.95476865768433,-781,-1788,612,115540,2
71.99480557441711,-723,-1589,803,115375,2
72.03478193283081,-627,-1584,982,115293,2
72.0747663974762,-722,-1650,895,115307,2
72.11481142044067,-732,-1776,919,115324,2
72.15500473976135,-888,-1795,757,115447,2
72.19399046897888,-1023,-1674,933,115525,2
72.23379325866699,-771,-1673,1005,115565,2
72.27378559112549,-691,-1717,821,115617,2
72.31376218795776,-751,-1748,744,115674,2
72.35377836227417,-838,-1690,945,115680,2
72.39377427101135,-942,-1637,938,115731,2
72.43380999565125,-913,-1697,877,115780,2
72.47399497032166,-926,-1710,900,115768,2
72.51379776000977,-878,-1704,954,115494,2
72.55378198623657,-789,-1509,908,115286,2
72.593759059906,-541,-1549,632,115248,2
72.63499236106873,-462,-1867,417,115338,2
72.67397141456604,-374,-1737,364,115497,2
72.71278762817383,-612,-1619,667,115625,2
72.75279998779297,-661,-1708,885,115692,2
72.7928295135498,-704,-1696,837,115704,2
72.83295822143555,-930,-1525,1000,115707,2
72.87283253669739,-1007,-1628,1106,115705,2
72.912832736969,-1135,-1774,1115,115702,2
72.95281672477722,-1255,-1904,1088,115644,2
72.99283027648926,-1176,-1856,994,115621,2
73.03299498558044,-950,-1751,924,115609,2
73.0727698802948,-741,-1684,735,115440,2
73.11283874511719,-716,-1658,836,115222,2
73.15283584594727,-798,-1671,1112,115130,2
73.192800283432,-829,-1610,1159,115161,2
73.23191237449646,-898,-1601,962,115227,2
73.27184009552002,-904,-1699,674,115364,2
73.31190586090088,-671,-1948,534,115493,2
73.35182285308838,-470,-1961,510,115599,2
73.39190149307251,-573,-1548,912,115654,2
73.43181037902832,-433,-1377,1028,115726,2
73.47203063964844,-661,-1651,1054,115703,2
73.51192498207092,-1194,-1809,891,115661,2
73.55184507369995,-1379,-1697,918,115630,2
73.5918447971344,-1295,-1747,762,115652,2
73.63217520713806,-1165,-1818,661,115582,2
73.67182922363281,-952,-1848,790,115419,2
73.71178603172302,-668,-1696,910,115363,2
73.7508134841919,-520,-1565,929,115455,2
73.79084849357605,-473,-1472,969,115606,2
73.83079624176025,-509,-1446,1106,115726,2
73.87097501754761,-634,-1466,1213,115834,2
73.91083860397339,-683,-1513,1185,115855,2
73.95084118843079,-742,-1571,1201,115898,2
73.99079322814941,-703,-1617,1177,115908,2
74.03098011016846,-676,-1482,1119,115928,2
74.07079792022705,-688,-1290,1200,115923,2
74.11080026626587,-715,-1163,1339,115939,2
74.1507933139801,-764,-1189,1384,115946,2
74.19080686569214,-911,-1286,1417,115884,2
74.23078751564026,-1175,-1391,1526,115639,2
74.26984715461731,-1396,-1341,1555,115462,2
74.30983686447144,-1483,-1217,1387,115464,2
74.34987044334412,-1337,-1259,1359,115573,2
74.38985252380371,-1119,-1425,1188,115724,2
74.42980718612671,-912,-1595,934,115809,2
74.46977162361145,-746,-1656,859,115896,2
74.51018810272217,-646,-1631,947,115938,2
74.54980659484863,-548,-1714,946,115947,2
74.58980298042297,-412,-1663,784,115942,2
74.62985515594482,-492,-1541,876,115976,2
74.66999435424805,-599,-1556,1071,115924,2
74.71009278297424,-706,-1674,1054,115946,2
74.75077509880066,-906,-1747,1036,115846,2
74.78883647918701,-1102,-1767,1178,115550,2
74.82882046699524,-1261,-1656,1060,115400,2
74.86922597885132,-1104,-1585,711,115446,2
74.90885853767395,-816,-1708,714,115577,2
74.9488377571106,-638,-1859,643,115697,2
74.98882246017456,-591,-1830,475,115779,2
75.02884244918823,-592,-1753,460,115767,2
75.06993341445923,-681,-1779,684,115732,2
75.10881876945496,-804,-1739,1007,115677,2
75.14903020858765,-967,-1626,1178,115663,2
75.1888484954834,-1064,-1538,1186,115661,2
75.22888350486755,-1149,-1682,1151,115694,2
75.26905584335327,-1082,-1773,1004,115739,2
75.3078682422638,-1034,-1611,902,115673,2
75.34786772727966,-883,-1471,1015,115497,2
75.38782954216003,-821,-1540,936,115418,2
75.42777419090271,-715,-1639,883,115483,2
75.46790790557861,-666,-1573,993,115590,2
75.50780987739563,-691,-1509,1001,115707,2
75.547847032547,-692,-1477,982,115783,2
75.58786106109619,-680,-1635,1026,115807,2
75.6278965473175,-731,-1881,1059,115788,2
75.66789364814758,-841,-1701,982,115776,2
75.70786881446838,-785,-1415,990,115796,2
75.74787020683289,-684,-1403,1151,115857,2
75.78785943984985,-693,-1536,1253,115890,2
75.82691025733948,-824,-1635,1162,115904,2
75.86687183380127,-925,-1647,1014,115875,2
75.90682482719421,-923,-1558,1051,115721,2
75.9469084739685,-827,-1501,1108,115625,2
75.98683190345764,-823,-1534,1049,115621,2
76.0269365310669,-793,-1580,1027,115716,2
76.0670018196106,-794,-1585,1025,115779,2
76.10703897476196,-774,-1580,990,115850,2
76.14710426330566,-742,-1537,1022,115851,2
76.1869900226593,-735,-1556,1055,115861,2
76.22684097290039,-738,-1623,1036,115845,2
76.2668731212616,-716,-1627,998,115867,2
76.3071641921997,-668,-1545,1071,115908,2
76.34603071212769,-677,-1499,1085,115951,2
76.38604497909546,-676,-1533,1110,115980,2
76.42582130432129,-703,-1543,1123,115889,2
76.46586656570435,-700,-1477,1118,115677,2
76.50586438179016,-640,-1434,1083,115577,2
76.54580950737,-574,-1377,1067,115612,2
76.58588123321533,-570,-1305,1056,115712,2
76.62608432769775,-613,-1280,1041,115834,2
76.66598176956177,-650,-1335,1032,115878,2
76.70657968521118,-632,-1401,1020,115901,2
76.7460286617279,-601,-1381,984,115889,2
76.7860746383667,-560,-1384,1019,115930,2
76.82586598396301,-507,-1543,1161,115948,2
76.86494898796082,-565,-1783,1210,115964,2
76.90499377250671,-688,-1984,1185,115929,2
76.94484543800354,-749,-2018,1040,115898,2
76.98486351966858,-680,-1886,985,115687,2
77.02484703063965,-595,-1502,986,115528,2
77.064857006073,-449,-1634,1079,115521,2
77.1051812171936,-374,-2110,850,115557,2
77.14502358436584,-553,-2142,575,115588,2
77.18482756614685,-899,-1952,738,115622,2
77.2250325679779,-816,-1928,706,115647,2
77.26500868797302,-843,-1898,650,115643,2
77.30522990226746,-777,-1804,756,115664,2
77.34483098983765,-704,-1716,849,115733,2
77.38554763793945,-561,-1716,960,115796,2
77.42384457588196,-517,-1672,1007,115848,2
77.46381044387817,-505,-1731,972,115901,2
77.50515151023865,-563,-1759,1000,115860,2
77.54399156570435,-601,-1844,1090,115644,2
77.58383822441101,-614,-1975,1111,115471,2
77.62382364273071,-543,-2099,1077,115447,2
77.66404175758362,-488,-2151,1108,115472,2
77.70386910438538,-484,-2105,1135,115554,2
77.74393439292908,-388,-2050,1132,115593,2
77.78394889831543,-383,-2013,1115,115633,2
77.82401490211487,-483,-1990,1088,115615,2
77.8638277053833,-546,-1957,967,115629,2
77.90385913848877,-452,-1918,847,115694,2
77.94302105903625,-433,-1847,752,115772,2
77.98296093940735,-351,-1688,861,115863,2
78.0230610370636,-313,-1602,1016,115920,2
78.0628821849823,-237,-1515,1000,115876,2
78.1031551361084,-292,-1619,941,115686,2
78.14314556121826,-429,-1682,921,115600,2
78.18300747871399,-505,-1509,966,115630,2
78.22290968894958,-553,-1434,1061,115688,2
78.2629177570343,-591,-1474,983,115759,2
78.30288004875183,-598,-1432,974,115799,2
78.34285187721252,-594,-1456,948,115817,2
78.38296866416931,-563,-1429,978,115836,2
78.42309308052063,-578,-1407,1033,115864,2
78.46311974525452,-562,-1498,1006,115888,2
78.50190877914429,-587,-1565,1007,115897,2
78.54201936721802,-621,-1613,1081,115921,2
78.58207440376282,-701,-1556,1095,115877,2
78.62197041511536,-764,-1498,1123,115679,2
78.66201877593994,-775,-1506,1159,115513,2
78.70200967788696,-816,-1516,1207,115453,2
78.74256134033203,-887,-1517,1217,115466,2
78.78185081481934,-875,-1557,1165,115519,2
78.82208967208862,-772,-1555,1155,115575,2
78.86186456680298,-715,-1497,1178,115630,2
78.90190196037292,-688,-1493,1190,115638,2
78.94197154045105,-697,-1537,1172,115663,2
78.98190236091614,-739,-1549,1160,115689,2
79.02084994316101,-765,-1520,1181,115728,2
79.06086993217468,-803,-1492,1177,115746,2
79.10085582733154,-807,-1570,1116,115784,2
79.14122200012207,-775,-1576,1088,115685,2
79.18085360527039,-737,-1534,1080,115429,2
79.22085309028625,-738,-1536,1026,115336,2
79.2608711719513,-750,-1551,1037,115335,2
79.30132174491882,-763,-1569,1050,115384,2
79.34158420562744,-748,-1579,1021,115474,2
79.38170289993286,-735,-1582,1049,115540,2
79.42084813117981,-719,-1565,1084,115578,2
79.46172451972961,-730,-1574,1069,115590,2
79.50086832046509,-733,-1604,1032,115615,2
79.53993844985962,-749,-1588,1030,115639,2
79.57987928390503,-755,-1558,1051,115679,2
79.61989402770996,-778,-1574,1021,115726,2
79.65984773635864,-777,-1636,983,115757,2
79.7007167339325,-819,-1622,989,115599,2
79.73987913131714,-860,-1575,1019,115362,2
79.77999472618103,-869,-1604,982,115300,2
79.81983423233032,-835,-1618,940,115308,2
79.85983633995056,-809,-1611,930,115366,2
79.89984917640686,-804,-1597,900,115433,2
79.94036984443665,-794,-1599,890,115478,2
79.98006653785706,-801,-1588,858,115503,2
80.0198609828949,-824,-1610,839,115538,2
80.06004500389099,-864,-1649,855,115558,2
80.0988552570343,-876,-1638,838,115582,2
80.13883900642395,-867,-1602,800,115615,2
80.17888140678406,-843,-1652,804,115645,2
80.21952319145203,-860,-1661,822,115602,2
80.25885605812073,-887,-1714,834,115332,2
80.29960227012634,-902,-1849,858,115171,2
80.33883929252625,-936,-1920,822,115095,2
80.37882590293884,-970,-1880,720,115095,2
80.41883683204651,-929,-1818,633,115129,2
80.45885515213013,-842,-1770,703,115231,2
80.49884343147278,-774,-1751,734,115269,2
80.53884720802307,-720,-1693,737,115308,2
80.57897210121155,-669,-1707,815,115291,2
80.61786556243896,-700,-1745,884,115300,2
80.65905165672302,-765,-1768,774,115321,2
80.69786262512207,-788,-1749,673,115392,2
80.7378396987915,-739,-1685,720,115458,2
80.77852392196655,-709,-1663,715,115361,2
80.8178563117981,-749,-1706,801,115133,2
80.85783195495605,-877,-1719,919,114988,2
80.89784049987793,-1044,-1751,918,114932,2
80.93815851211548,-1166,-1752,929,114912,2
80.9783821105957,-1240,-1711,967,114974,2
81.01786184310913,-1107,-1628,954,115066,2
81.05824613571167,-937,-1605,960,115108,2
81.0978798866272,-775,-1595,955,115176,2
81.13681030273438,-657,-1558,981,115228,2
81.1769654750824,-592,-1490,1083,115266,2
81.21704125404358,-594,-1472,1152,115321,2
81.25700306892395,-680,-1432,1149,115383,2
81.29686331748962,-683,-1594,1277,115411,2
81.33685803413391,-716,-1869,1200,115310,2
81.37740159034729,-697,-1619,1047,115106,2
81.41747379302979,-569,-1308,1098,115033,2
81.45696544647217,-491,-1364,1112,115051,2
81.4968752861023,-581,-1544,1061,115126,2
81.53703022003174,-773,-1637,955,115190,2
81.57691383361816,-860,-1570,939,115253,2
81.61739611625671,-851,-1473,1029,115288,2
81.65783476829529,-818,-1441,1090,115298,2
81.69604396820068,-832,-1469,1091,115321,2
81.73659753799438,-831,-1476,1081,115353,2
81.77655482292175,-828,-1471,1173,115375,2
81.81604504585266,-824,-1486,1218,115399,2
81.85589551925659,-828,-1508,1254,115384,2
81.89607048034668,-862,-1536,1300,115143,2
81.93604612350464,-824,-1535,1321,114947,2
81.97587060928345,-729,-1435,1265,114890,2
82.01587128639221,-683,-1379,1111,114936,2
82.05604577064514,-726,-1390,1078,115002,2
82.09659743309021,-859,-1486,1035,115090,2
82.13604021072388,-931,-1656,968,115158,2
82.17593121528625,-922,-1617,1147,115167,2
82.21487355232239,-946,-1428,1343,115123,2
82.25574731826782,-827,-1574,1159,115163,2
82.29488277435303,-706,-1516,1303,115177,2
82.33503103256226,-634,-1508,1171,115237,2
82.37491536140442,-637,-1616,901,115330,2
82.41497302055359,-649,-1596,968,115230,2
82.45571422576904,-686,-1535,1092,114957,2
82.49484896659851,-736,-1502,1038,114839,2
82.53486061096191,-738,-1544,963,114807,2
82.57570838928223,-714,-1571,976,114855,2
82.61525130271912,-738,-1564,1007,114909,2
82.65506553649902,-783,-1591,1035,114978,2
82.69501495361328,-845,-1556,1117,115024,2
82.73438763618469,-870,-1524,1128,115036,2
82.77391719818115,-885,-1525,1111,115049,2
82.81447219848633,-824,-1538,1102,115085,2
82.8541054725647,-806,-1591,1019,115142,2
82.8941056728363,-826,-1606,1070,115159,2
82.93392062187195,-871,-1615,1085,115190,2
82.97405004501343,-918,-1590,1030,115066,2
83.01412034034729,-880,-1561,1065,114839,2
83.05388331413269,-844,-1589,1051,114764,2
83.09422993659973,-807,-1573,983,114761,2
83.13387131690979,-752,-1586,905,114840,2
83.17387676239014,-700,-1574,861,114934,2
83.21387648582458,-726,-1562,865,115022,2
83.2538812160492,-756,-1653,825,115061,2
83.2929003238678,-828,-1700,831,115074,2
83.33289456367493,-860,-1667,842,115086,2
83.3741180896759,-869,-1657,915,115085,2
83.41363072395325,-853,-1666,954,115118,2
83.45285630226135,-872,-1704,922,115129,2
83.49293565750122,-893,-1718,920,115090,2
83.53289008140564,-927,-1695,928,114840,2
83.5728874206543,-967,-1635,873,114720,2
83.61289548873901,-909,-1592,770,114690,2
83.65302157402039,-800,-1804,849,114689,2
83.69294285774231,-774,-2002,799,114734,2
83.73288083076477,-858,-1788,732,114766,2
83.77288842201233,-877,-1328,904,114803,2
83.813059091568,-890,-1295,1135,114840,2
83.85264110565186,-765,-1750,902,114910,2
83.89203071594238,-619,-1900,526,115023,2
83.93199896812439,-555,-1669,481,115104,2
83.97204446792603,-594,-1539,705,115154,2
84.01203060150146,-786,-1566,925,115126,2
84.05190062522888,-1072,-1558,894,114920,2
84.09205913543701,-1193,-1610,869,114693,2
84.13205361366272,-1165,-1811,943,114548,2
84.17192244529724,-1034,-1625,1087,114511,2
84.21203827857971,-1028,-1589,1111,114510,2
84.25207686424255,-998,-1640,1111,114570,2
84.29207372665405,-1018,-1585,975,114611,2
84.33207583427429,-917,-1535,847,114678,2
84.37188076972961,-897,-1431,859,114711,2
84.41102910041809,-929,-1597,804,114721,2
84.45088171958923,-1000,-1784,792,114713,2
84.49105072021484,-1022,-1973,768,114715,2
84.53101873397827,-1036,-1706,926,114698,2
84.57103872299194,-1089,-1676,901,114625,2
84.61097836494446,-883,-1823,630,114512,2
84.6513135433197,-768,-1833,638,114418,2
84.69101023674011,-697,-1997,808,114412,2
84.73092007637024,-646,-1912,1059,114380,2
84.77101349830627,-485,-1709,980,114457,2
84.81101679801941,-336,-1581,621,114626,2
84.85134267807007,-435,-1408,544,114724,2
84.89101243019104,-487,-1622,611,114751,2
84.93198323249817,-750,-1764,726,114731,2
84.96991634368896,-1078,-1595,1042,114646,2
85.01006054878235,-1369,-1457,1201,114588,2
85.05027914047241,-1317,-1623,1000,114616,2
85.08988213539124,-1128,-1681,965,114628,2
85.13010716438293,-952,-1800,1039,114460,2
85.1698899269104,-808,-1876,1228,114287,2
85.21004009246826,-723,-1791,1002,114268,2
85.25009059906006,-580,-1749,672,114340,2
85.29003691673279,-549,-1657,722,114413,2
85.33012890815735,-673,-1344,842,114489,2
85.37005710601807,-678,-1413,578,114639,2
85.41002011299133,-781,-1658,635,114655,2
85.45005965232849,-1079,-1802,1001,114559,2
85.48992705345154,-1354,-1771,1126,114457,2
85.52910423278809,-1546,-1594,1092,114433,2
85.56903219223022,-1424,-1439,1012,114489,2
85.60899066925049,-1216,-1462,1017,114545,2
85.64914202690125,-1110,-1595,974,114486,2
85.68948221206665,-987,-1717,957,114341,2
85.72912311553955,-848,-1831,975,114308,2
85.76899313926697,-681,-1886,1046,114319,2
85.80890083312988,-562,-1940,1048,114340,2
85.84916591644287,-484,-1930,1041,114379,2
85.88900256156921,-449,-1766,788,114447,2
85.92892932891846,-504,-1322,657,114588,2
85.96902322769165,-440,-1230,645,114732,2
86.00901532173157,-512,-1342,687,114858,2
86.04921412467957,-775,-1528,859,114898,2
86.08860731124878,-1059,-1668,1107,114836,2
86.12792205810547,-1287,-1741,1318,114746,2
86.16794013977051,-1500,-1746,1359,114607,2
86.2080590724945,-1602,-1638,1232,114384,2
86.2480742931366,-1512,-1474,1155,114284,2
86.2880802154541,-1293,-1437,1133,114297,2
86.32805299758911,-1061,-1567,1100,114354,2
86.36804366111755,-967,-1822,1202,114378,2
86.4080331325531,-864,-2056,1248,114394,2
86.44806838035583,-732,-2041,1096,114388,2
86.48923659324646,-513,-1899,1013,114421,2
86.52819466590881,-270,-1832,1064,114443,2
86.56790733337402,-138,-1714,1088,114520,2
86.6080334186554,-306,-1365,1113,114645,2
86.64700317382812,-465,-1149,1211,114786,2
86.68704223632812,-514,-1344,825,114999,2
86.72690510749817,-677,-1445,520,115008,2
86.76690745353699,-1221,-1372,619,114922,2
86.80699968338013,-1696,-1277,750,114927,2
86.84692668914795,-1638,-1287,822,114955,2
86.88709783554077,-1501,-1257,1008,114974,2
86.92704582214355,-1375,-1245,1149,114963,2
86.96690893173218,-1223,-1316,1293,114936,2
87.00700855255127,-1279,-1384,1337,114864,2
87.0469582080841,-1282,-1490,1230,114852,2
87.08746910095215,-1235,-1578,1150,114822,2
87.12694263458252,-1067,-1583,1103,114836,2
87.1670913696289,-894,-1636,990,114906,2
87.20592164993286,-745,-1617,947,114950,2
87.24604558944702,-607,-1575,933,114819,2
87.28598833084106,-526,-1529,902,114714,2
87.32625007629395,-490,-1558,912,114726,2
87.36608934402466,-476,-1621,937,114799,2
87.4060742855072,-508,-1662,975,114895,2
87.44603514671326,-594,-1665,1018,114966,2
87.48604273796082,-640,-1692,992,114972,2
87.52600121498108,-667,-1760,972,114930,2
87.56607818603516,-755,-1745,1050,114843,2
87.60600686073303,-817,-1711,1163,114792,2
87.64603543281555,-802,-1702,1179,114759,2
87.68609571456909,-813,-1639,1139,114804,2
87.72591638565063,-816,-1624,1059,114840,2
87.76499271392822,-804,-1657,1032,114646,2
87.80499839782715,-834,-1652,1082,114516,2
87.84498119354248,-849,-1651,1104,114478,2
87.88501358032227,-890,-1631,1107,114539,2
87.9250054359436,-912,-1596,1072,114627,2
87.96498107910156,-885,-1640,996,114710,2
88.00502347946167,-845,-1658,956,114766,2
88.04500651359558,-830,-1608,966,114775,2
88.0849859714508,-827,-1576,975,114795,2
88.12534379959106,-818,-1587,899,114820,2
88.16499185562134,-661,-1666,723,114920,2
88.2049171924591,-493,-1637,627,115020,2
88.24498748779297,-520,-1593,781,115020,2
88.28498888015747,-671,-1629,1000,114791,2
88.3242118358612,-790,-1784,1132,114608,2
88.36401271820068,-774,-1502,880,114636,2
88.40403652191162,-616,-1446,501,114803,2
88.44399333000183,-641,-1622,554,114925,2
88.48436570167542,-897,-1679,884,114931,2
88.52436661720276,-1094,-1781,1014,114829,2
88.56400918960571,-1418,-1724,1372,114640,2
88.60402536392212,-1586,-1487,1497,114532,2
88.6440041065216,-1186,-1894,762,114635,2
88.68400001525879,-814,-2005,427,114728,2
88.77052211761475,-762,-1726,568,114756,2
88.7714490890503,-730,-1672,467,114605,2
88.80398488044739,-638,-1722,483,114495,2
88.84400486946106,-648,-1739,626,114456,2
88.8831696510315,-789,-1742,708,114450,2
88.92357349395752,-864,-1771,962,114427,2
88.96300196647644,-977,-1704,1095,114391,2
89.0030164718628,-1068,-1532,875,114400,2
89.04300117492676,-913,-1759,694,114463,2
89.08300280570984,-779,-1920,603,114478,2
89.12302994728088,-884,-1813,497,114511,2
89.16329383850098,-1026,-1484,789,114493,2
89.20323824882507,-1111,-1452,1146,114463,2
89.24320101737976,-1236,-1581,1107,114338,2
89.28298115730286,-1234,-1653,983,114171,2
89.32323002815247,-1057,-1613,1002,114048,2
89.3629879951477,-918,-1607,1031,114034,2
89.40325403213501,-826,-1730,1045,114095,2
89.44200420379639,-800,-1692,993,114184,2
89.48213601112366,-753,-1542,909,114281,2
89.52207660675049,-732,-1492,931,114350,2
89.56202459335327,-602,-1578,1071,114371,2
89.60200619697571,-653,-1593,1179,114367,2
89.64202499389648,-648,-1651,1076,114391,2
89.68208646774292,-656,-1610,998,114465,2
89.72200655937195,-668,-1519,957,114501,2
89.76201033592224,-706,-1436,990,114340,2
89.8020339012146,-807,-1404,1091,114203,2
89.8420033454895,-807,-1447,1107,114150,2
89.88204669952393,-817,-1452,1126,114179,2
89.92204236984253,-847,-1416,1147,114245,2
89.96230411529541,-863,-1406,1143,114315,2
90.00205898284912,-827,-1451,1111,114339,2
90.0409882068634,-856,-1461,1156,114341,2
90.08099699020386,-907,-1448,1218,114319,2
90.1211462020874,-1000,-1441,1206,114348,2
90.16113185882568,-1039,-1440,1190,114363,2
90.20105147361755,-1025,-1499,1186,114391,2
90.24100017547607,-973,-1523,1166,114268,2
90.28118586540222,-895,-1506,1133,114051,2
90.3211567401886,-835,-1511,1139,113917,2
90.36110472679138,-805,-1566,1138,113876,2
90.4010660648346,-805,-1603,1072,113925,2
90.4410171508789,-777,-1626,1018,113984,2
90.48116946220398,-725,-1635,986,114046,2
90.52097582817078,-695,-1629,954,114109,2
90.56044006347656,-668,-1587,920,114144,2
90.59997487068176,-664,-1551,880,114197,2
90.64000034332275,-667,-1551,858,114282,2
90.67999839782715,-702,-1589,845,114369,2
90.72021222114563,-746,-1614,848,114387,2
90.76010727882385,-801,-1666,867,114201,2
90.8002576828003,-843,-1674,936,113995,2
90.83998894691467,-887,-1660,979,113889,2
90.88002610206604,-894,-1680,977,113846,2
90.92018795013428,-898,-1662,967,113869,2
90.96002149581909,-872,-1641,946,113893,2
91.00005412101746,-853,-1634,884,113957,2
91.04002141952515,-810,-1694,848,113997,2
91.07901358604431,-794,-1736,815,114033,2
91.11899399757385,-799,-1719,770,114081,2
91.15904688835144,-827,-1895,783,114128,2
91.19898295402527,-896,-1803,745,114166,2
91.23898220062256,-880,-1589,733,114185,2
91.27897787094116,-842,-1538,846,114041,2
91.31899428367615,-804,-1624,1002,113841,2
91.35897517204285,-857,-1666,992,113736,2
91.39898800849915,-936,-1632,985,113728,2
91.43902277946472,-1002,-1634,1018,113736,2
91.47904968261719,-1027,-1620,1023,113771,2
91.51901245117188,-994,-1588,972,113817,2
91.55816459655762,-885,-1664,935,113843,2
91.59803342819214,-744,-1726,963,113842,2
91.63799262046814,-682,-1690,976,113881,2
91.67799687385559,-749,-1575,1066,113922,2
91.71801972389221,-834,-1575,1212,113945,2
91.75803208351135,-880,-1598,1266,113844,2
91.79801082611084,-794,-1519,1205,113594,2
91.83803987503052,-668,-1541,1295,113435,2
91.87799739837646,-628,-1678,1235,113382,2
91.9180006980896,-619,-1616,1096,113410,2
91.95798897743225,-653,-1361,1019,113543,2
91.99910736083984,-573,-1228,914,113697,2
92.0380048751831,-509,-1091,974,113811,2
92.07699346542358,-589,-1048,1140,113897,2
92.11700582504272,-822,-1199,1277,113926,2
92.15721464157104,-1064,-1379,1214,113953,2
92.19702529907227,-1212,-1381,1200,113968,2
92.23700785636902,-1256,-1373,1296,113972,2
92.27703046798706,-1223,-1350,1401,113863,2
92.3170051574707,-1200,-1441,1383,113587,2
92.35712122917175,-1150,-1512,1423,113372,2
92.39747834205627,-1045,-1425,1375,113317,2
92.43703961372375,-898,-1299,1250,113404,2
92.4769880771637,-750,-1517,1061,113574,2
92.51707029342651,-676,-1746,952,113673,2
92.55699348449707,-608,-1752,789,113733,2
92.59763646125793,-572,-1501,730,113809,2
92.63599705696106,-589,-1362,835,113885,2
92.67608189582825,-636,-1526,897,113946,2
92.71609902381897,-746,-1815,872,113965,2
92.75608897209167,-947,-1769,874,113955,2
92.7960090637207,-1132,-1653,877,113792,2
92.83610725402832,-1239,-1485,961,113472,2
92.87601923942566,-1245,-1411,937,113321,2
92.91600584983826,-1093,-1500,842,113320,2
92.95599722862244,-939,-1583,809,113362,2
92.99598574638367,-819,-1882,813,113410,2
93.0360062122345,-801,-1818,765,113409,2
93.075998544693,-800,-1767,723,113456,2
93.1159815788269,-812,-1664,772,113472,2
93.1550178527832,-810,-1636,857,113513,2
93.19507908821106,-775,-1697,923,113548,2
93.23501420021057,-778,-1765,933,113617,2
93.2750084400177,-807,-1793,871,113693,2
93.31508946418762,-882,-1923,902,113615,2
93.35503578186035,-952,-1843,785,113377,2
93.39500546455383,-867,-1738,634,113261,2
93.43525767326355,-780,-1724,671,113273,2
93.47509479522705,-755,-1702,863,113278,2
93.51503252983093,-767,-1755,995,113314,2
93.55513000488281,-807,-1779,1031,113310,2
93.59511041641235,-803,-1721,1102,113345,2
93.63569903373718,-747,-1670,1118,113378,2
93.67410588264465,-644,-1657,1092,113429,2
93.71409225463867,-626,-1662,1089,113489,2
93.75421524047852,-609,-1645,1077,113581,2
93.79426383972168,-616,-1590,1052,113693,2
93.83412551879883,-610,-1536,1002,113752,2
93.87408471107483,-595,-1458,888,113619,2
93.91408109664917,-574,-1454,804,113520,2
93.95413637161255,-639,-1514,780,113529,2
93.99412631988525,-684,-1675,807,113548,2
94.03433656692505,-792,-1709,1002,113522,2
94.07408833503723,-931,-1671,1305,113467,2
94.11407041549683,-924,-1655,1303,113422,2
94.15414476394653,-804,-1633,1176,113445,2
94.19407224655151,-765,-1605,1058,113517,2
94.23323082923889,-679,-1633,925,113637,2
94.27314066886902,-664,-1628,913,113747,2
94.31320071220398,-619,-1585,941,113849,2
94.35309672355652,-618,-1591,958,113876,2
94.39303588867188,-645,-1560,1037,113638,2
94.43343257904053,-651,-1618,1004,113479,2
94.47309374809265,-644,-1678,975,113447,2
94.51303625106812,-654,-1649,967,113467,2
94.55310678482056,-637,-1634,982,113486,2
94.59303784370422,-591,-1621,934,113576,2
94.63315892219543,-561,-1641,956,113575,2
94.67316818237305,-609,-1669,964,113597,2
94.71319890022278,-685,-1650,994,113623,2
94.75207304954529,-754,-1655,989,113667,2
94.79213452339172,-768,-1675,999,113707,2
94.83213901519775,-768,-1734,1064,113735,2
94.87214803695679,-802,-1721,1130,113580,2
94.91216945648193,-817,-1690,1116,113300,2
94.95207858085632,-779,-1669,1081,113196,2
94.99214291572571,-718,-1652,1072,113201,2
95.03229665756226,-690,-1612,1057,113260,2
95.07219552993774,-696,-1576,1019,113339,2
95.11213183403015,-694,-1605,971,113389,2
95.15205526351929,-717,-1617,977,113418,2
95.19217920303345,-701,-1640,983,113470,2
95.23228526115417,-714,-1601,998,113543,2
95.27106189727783,-723,-1565,996,113613,2
95.31106233596802,-730,-1577,989,113696,2
95.35108256340027,-713,-1665,1011,113744,2
95.39112186431885,-721,-1662,1021,113571,2
95.43113946914673,-737,-1623,1008,113310,2
95.47115659713745,-768,-1626,1008,113236,2
95.5111756324768,-755,-1614,1021,113254,2
95.55113482475281,-726,-1623,1021,113293,2
95.59113788604736,-700,-1613,978,113334,2
95.63106894493103,-675,-1593,1026,113389,2
95.6711015701294,-669,-1608,1090,113436,2
95.71116256713867,-668,-1631,1076,113492,2
95.75111508369446,-693,-1556,1079,113568,2
95.79014444351196,-678,-1493,1082,113679,2
95.83007287979126,-652,-1427,1098,113803,2
95.87009763717651,-668,-1428,1110,113924,2
95.91009402275085,-646,-1478,1161,113847,2
95.95008563995361,-649,-1707,1063,113546,2
95.99010610580444,-673,-1765,1032,113346,2
96.03011083602905,-736,-1635,1133,113262,2
96.07046318054199,-793,-1471,1249,113275,2
96.11012244224548,-854,-1436,1255,113310,2
96.15014982223511,-914,-1455,1251,113346,2
96.19008755683899,-985,-1509,1321,113329,2
96.23014378547668,-1016,-1512,1363,113273,2
96.27050876617432,-955,-1481,1377,113293,2
96.30904793739319,-839,-1515,1300,113345,2
96.34908533096313,-724,-1560,1161,113460,2
96.3891077041626,-644,-1569,984,113607,2
96.42912125587463,-595,-1564,1005,113741,2
96.4704098701477,-618,-1545,1027,113649,2
96.50915384292603,-667,-1527,1041,113385,2
96.54917454719543,-694,-1503,1134,113250,2
96.58909893035889,-685,-1540,1127,113249,2
96.62905311584473,-682,-1562,1083,113295,2
96.6691370010376,-694,-1567,1061,113354,2
96.7093653678894,-717,-1552,1076,113400,2
96.74919557571411,-728,-1525,1092,113410,2
96.78913831710815,-762,-1527,1087,113460,2
96.82907485961914,-785,-1528,1113,113507,2
96.86835408210754,-809,-1535,1150,113545,2
96.90811848640442,-823,-1537,1136,113613,2
96.94806718826294,-823,-1533,1152,113659,2
96.98813462257385,-775,-1557,1200,113720,2
97.02810764312744,-871,-1534,1142,113576,2
97.06813359260559,-859,-1480,1113,113303,2
97.10819578170776,-904,-1472,1089,113180,2
97.14814305305481,-1284,-1465,1201,113113,2
97.1881172657013,-1662,-1445,1343,113047,2
97.22812533378601,-1576,-1543,1254,113095,2
97.26810312271118,-1243,-1547,1254,113136,2
97.30815243721008,-1141,-1565,1299,113188,2
97.34826898574829,-1045,-1598,1190,113228,2
97.38805222511292,-924,-1566,1086,113268,2
97.4273407459259,-763,-1434,1089,113347,2
97.46708297729492,-671,-1253,1230,113391,2
97.50711941719055,-671,-1165,1240,113333,2
97.54706978797913,-762,-1142,1262,113246,2
97.58704924583435,-950,-1065,1356,113002,2
97.62712693214417,-1023,-1008,1354,112688,2
97.66706085205078,-1084,-937,1380,112550,2
97.7070460319519,-1161,-911,1401,112497,2
97.74765300750732,-1216,-881,1412,112505,2
97.78704571723938,-1200,-843,1359,112563,2
97.82712507247925,-1231,-782,1330,112585,2
97.8671190738678,-1298,-754,1287,112620,2
97.90608024597168,-1283,-743,1262,112667,2
97.94608807563782,-1287,-716,1245,112721,2
97.98606443405151,-1359,-721,1205,112779,2
98.02612257003784,-1400,-719,1217,112841,2
98.06609916687012,-1427,-713,1211,112892,2
98.10651922225952,-1380,-741,1177,112953,2
98.1461169719696,-1439,-768,1207,112879,2
98.18612384796143,-1460,-762,1262,112547,2
98.22605347633362,-1443,-754,1262,112317,2
98.26617932319641,-1410,-779,1298,112212,2
98.30629134178162,-1430,-748,1390,112159,2
98.34613490104675,-1391,-749,1538,112126,2
98.38609790802002,-1127,-734,1521,112175,2
98.4260892868042,-993,-758,1477,112261,2
98.46513605117798,-836,-712,1745,112365,2
98.5056402683258,-865,-731,1704,112442,2
98.54511022567749,-992,-936,1485,112467,2
98.58503985404968,-795,-745,1705,112484,2
98.62510538101196,-834,-765,1675,112495,2
98.66504454612732,-821,-715,1761,112490,2
98.7050564289093,-814,-726,1764,112505,2
98.74505352973938,-812,-718,1779,112355,2
98.78507351875305,-844,-686,1731,112031,2
98.87699937820435,-860,-689,1663,111868,2
98.87802481651306,-877,-709,1672,111808,2
98.90514302253723,-940,-706,1727,111849,2
98.94508004188538,-935,-699,1743,111881,2
98.98419952392578,-895,-692,1710,111949,2
99.02411580085754,-879,-690,1750,111951,2
99.06409192085266,-907,-689,1749,111963,2
99.10426735877991,-887,-689,1716,112008,2
99.14410424232483,-909,-682,1719,112043,2
99.18412899971008,-926,-675,1735,112117,2
99.22407293319702,-920,-667,1693,112151,2
99.26411175727844,-946,-673,1684,112221,2
99.3041136264801,-966,-684,1663,112206,2
99.34413862228394,-1025,-666,1668,111926,2
99.38406729698181,-1103,-653,1629,111691,2
99.424081325531,-1144,-627,1565,111596,2
99.46406531333923,-1235,-618,1516,111655,2
99.50540709495544,-1325,-620,1415,111774,2
99.54305934906006,-1487,-604,1364,111893,2
99.58305835723877,-1464,-614,1276,111933,2
99.62305402755737,-1543,-647,1163,111998,2
99.66306924819946,-1591,-680,1067,112086,2
99.7030918598175,-1628,-640,1059,112152,2
99.74308347702026,-1668,-695,966,112255,2
99.78309440612793,-1685,-670,926,112337,2
99.82305383682251,-1673,-677,906,112426,2
99.8630473613739,-1638,-694,865,112530,2
99.90310049057007,-1634,-695,872,112456,2
99.94367361068726,-1611,-678,891,112117,2
99.98313188552856,-1641,-683,934,111940,2
100.02304601669312,-1685,-685,985,111929,2
100.06207871437073,-1671,-697,1029,111982,2
100.10212016105652,-1618,-694,1060,112074,2
100.14228630065918,-1581,-662,1139,112135,2
100.18208932876587,-1550,-657,1215,112184,2
100.22207903862,-1433,-649,1304,112205,2
100.26209282875061,-1323,-597,1401,112244,2
100.30210304260254,-1074,-615,1492,112314,2
100.34246969223022,-1011,-578,1630,112359,2
100.38205289840698,-962,-618,1651,112414,2
100.42212963104248,-885,-610,1686,112532,2
100.46205830574036,-857,-583,1852,112561,2
100.50206065177917,-850,-616,1826,112610,2
100.54242062568665,-777,-585,1863,112307,2
100.58104968070984,-733,-541,1848,112116,2
100.62104654312134,-764,-527,1853,112124,2
100.66104531288147,-708,-536,1791,112251,2
100.70170283317566,-736,-487,1769,112432,2
100.7413637638092,-750,-478,1808,112548,2
100.7812008857727,-789,-475,1876,112627,2
100.82141208648682,-812,-493,1858,112645,2
100.86107301712036,-782,-481,1857,112671,2
100.90105152130127,-799,-487,1792,112699,2
100.94109463691711,-772,-468,1773,112790,2
100.981116771698,-787,-495,1735,112840,2
101.02120018005371,-841,-471,1790,112893,2
101.0611047744751,-873,-491,1765,112968,2
101.10005855560303,-921,-474,1767,112856,2
101.14007472991943,-906,-459,1793,112530,2
101.1800467967987,-932,-473,1750,112353,2
101.22012162208557,-899,-463,1764,112333,2
101.26005816459656,-946,-489,1754,112373,2
101.3000659942627,-1028,-486,1705,112473,2
101.34029150009155,-1131,-486,1667,112556,2
101.38011622428894,-1220,-484,1637,112566,2
101.42006731033325,-1257,-491,1588,112590,2
101.46013832092285,-1268,-484,1557,112577,2
101.50006818771362,-1253,-464,1555,112614,2
101.5402262210846,-1261,-455,1535,112659,2
101.58011174201965,-1267,-442,1530,112746,2
101.62016892433167,-1245,-447,1495,112847,2
101.65911316871643,-1265,-447,1534,112830,2
101.69907116889954,-1312,-425,1569,112532,2
101.73909044265747,-1257,-424,1552,112305,2
101.77904725074768,-1214,-437,1534,112265,2
101.81911587715149,-1214,-429,1552,112339,2
101.85907316207886,-1166,-431,1531,112421,2
101.89905786514282,-1088,-474,1491,112505,2
101.9391782283783,-1049,-458,1462,112533,2
101.97921371459961,-1120,-435,1524,112461,2
102.01908159255981,-1196,-401,1515,112471,2
102.05907201766968,-1352,-320,1585,112452,2
102.09908151626587,-1321,-317,1663,112505,2
102.1393187046051,-1230,-407,1670,112586,2
102.1780776977539,-1265,-483,1787,112651,2
102.21820306777954,-1289,-603,1712,112669,2
102.25809240341187,-1191,-677,1607,112368,2
102.29805397987366,-1080,-685,1371,112128,2
102.33812689781189,-1139,-607,1283,112061,2
102.37822437286377,-1332,-514,1419,112068,2
102.41808080673218,-1418,-419,1512,112115,2
102.45822477340698,-1389,-343,1487,112181,2
102.49808692932129,-1374,-332,1456,112200,2
102.53806042671204,-1441,-317,1522,112192,2
102.57808446884155,-1467,-328,1659,112127,2
102.61811232566833,-1437,-373,1720,112125,2
102.65817451477051,-1339,-410,1645,112140,2
102.69709777832031,-1266,-437,1628,112134,2
102.73708009719849,-1291,-443,1631,112141,2
102.77726650238037,-1329,-454,1501,112203,2
102.81708002090454,-1345,-431,1422,112112,2
102.8570966720581,-1293,-401,1333,111860,2
102.89722776412964,-1303,-341,1343,111726,2
102.93707036972046,-1279,-270,1495,111670,2
102.97731828689575,-1320,-220,1594,111693,2
103.0171172618866,-1312,-199,1575,111713,2
103.05703282356262,-1280,-195,1552,111750,2
103.09706115722656,-1185,-207,1541,111691,2
103.13707423210144,-1236,-233,1519,111713,2
103.17707848548889,-1346,-234,1526,111778,2
103.21612453460693,-1397,-266,1509,111842,2
103.25608992576599,-1406,-275,1554,111901,2
103.29609894752502,-1377,-269,1553,111986,2
103.33611035346985,-1338,-231,1541,112102,2
103.37616491317749,-1279,-237,1510,112170,2
103.41607761383057,-1292,-243,1554,111990,2
103.45612215995789,-1280,-235,1544,111749,2
103.49610805511475,-1307,-239,1549,111637,2
103.53609204292297,-1306,-228,1569,111621,2
103.57606077194214,-1285,-217,1545,111692,2
103.61613392829895,-1294,-225,1524,111792,2
103.65611720085144,-1266,-207,1540,111864,2
103.69606971740723,-1224,-222,1543,111904,2
103.7350766658783,-1239,-215,1598,111932,2
103.775226354599,-1231,-237,1619,111955,2
103.81511974334717,-1235,-242,1603,111999,2
103.8550934791565,-1224,-242,1600,112060,2
103.89508938789368,-1213,-254,1563,112111,2
103.9351098537445,-1178,-269,1588,112152,2
103.97534441947937,-1206,-277,1594,111936,2
104.01526522636414,-1255,-262,1593,111636,2
104.05517101287842,-1250,-279,1596,111466,2
104.09519600868225,-1213,-277,1614,111421,2
104.13508152961731,-1211,-286,1630,111431,2
104.17508029937744,-1200,-290,1584,111477,2
104.21508932113647,-1206,-298,1620,111520,2
104.25514340400696,-1250,-290,1613,111572,2
104.29418516159058,-1193,-290,1578,111590,2
104.33407831192017,-1199,-274,1621,111604,2
104.37409973144531,-1267,-268,1657,111667,2
104.41434001922607,-1210,-279,1646,111761,2
104.45414113998413,-1183,-277,1595,111839,2
104.4941177368164,-1155,-306,1582,111935,2
104.5340838432312,-1219,-323,1612,111762,2
104.57413935661316,-1208,-317,1638,111433,2
104.6146936416626,-1154,-332,1597,111261,2
104.65409135818481,-1174,-331,1622,111234,2
104.69410181045532,-1214,-316,1636,111279,2
104.7341091632843,-1217,-316,1585,111383,2
104.77410078048706,-1189,-305,1527,111470,2
104.81417655944824,-1207,-314,1555,111505,2
104.85309982299805,-1220,-329,1584,111526,2
104.89313912391663,-1258,-330,1565,111575,2
104.93310928344727,-1280,-321,1541,111625,2
104.97330474853516,-1315,-327,1546,111690,2
105.0130603313446,-1340,-324,1564,111762,2
105.05338501930237,-1347,-323,1529,111864,2
105.09312057495117,-1355,-349,1503,111856,2
105.13311123847961,-1363,-335,1502,111545,2
105.17310500144958,-1354,-346,1450,111332,2
105.21312713623047,-1403,-338,1465,111244,2
105.25311660766602,-1396,-347,1484,111267,2
105.29310441017151,-1369,-352,1449,111332,2
105.33310842514038,-1384,-365,1444,111396,2
105.37312245368958,-1385,-362,1476,111439,2
105.41232562065125,-1358,-359,1439,111466,2
105.45229744911194,-1366,-370,1454,111468,2
105.49216866493225,-1371,-361,1480,111504,2
105.53280830383301,-1373,-365,1471,111566,2
105.57210278511047,-1346,-361,1473,111592,2
105.61213612556458,-1344,-370,1434,111668,2
105.65215849876404,-1316,-378,1435,111671,2
105.69212031364441,-1369,-361,1476,111372,2
105.73211550712585,-1377,-358,1472,111121,2
105.77212071418762,-1331,-354,1459,110984,2
105.81295371055603,-1343,-358,1459,110970,2
105.85288166999817,-1357,-360,1453,111035,2
105.89210104942322,-1364,-376,1418,111124,2
105.93211889266968,-1378,-383,1429,111162,2
105.97115015983582,-1375,-403,1406,111181,2
106.01174187660217,-1353,-409,1395,111227,2
106.05127239227295,-1341,-423,1437,111275,2
106.09114837646484,-1332,-436,1506,111328,2
106.13114809989929,-1336,-459,1522,111388,2
106.17112684249878,-1350,-458,1567,111444,2
106.21115922927856,-1258,-491,1511,111477,2
106.25124788284302,-1250,-502,1496,111229,2
106.29119062423706,-1366,-471,1489,110935,2
106.33115911483765,-1404,-441,1508,110816,2
106.37115216255188,-1446,-399,1527,110796,2
106.41116261482239,-1388,-388,1540,110858,2
106.45112609863281,-1391,-411,1523,110940,2
106.49025344848633,-1425,-426,1528,111011,2
106.53012800216675,-1466,-434,1488,111031,2
106.57012867927551,-1465,-471,1468,111038,2
106.61011147499084,-1288,-522,1331,111142,2
106.65042042732239,-1241,-485,1224,111251,2
106.69027638435364,-1395,-408,1317,111334,2
106.73009896278381,-1446,-365,1425,111374,2
106.77012467384338,-1438,-334,1357,111472,2
106.81014323234558,-1469,-303,1339,111443,2
106.85011386871338,-1493,-302,1388,111156,2
106.890376329422,-1376,-303,1322,110986,2
106.9301335811615,-1367,-274,1264,110991,2
106.97012257575989,-1510,-246,1476,111019,2
107.00913786888123,-1628,-233,1603,111080,2
107.04916262626648,-1571,-251,1461,111157,2
107.08913135528564,-1457,-257,1345,111215,2
107.12914395332336,-1463,-289,1352,111247,2
107.16915726661682,-1284,-324,1301,111296,2
107.20916986465454,-1459,-202,1308,111351,2
107.24942779541016,-1688,-174,1633,111345,2
107.2891776561737,-1556,-253,1604,111368,2
107.3292498588562,-1379,-313,1320,111497,2
107.36911797523499,-1286,-352,1183,111635,2
107.40915870666504,-1447,-365,1301,111378,2
107.44913077354431,-1596,-335,1411,111085,2
107.48920011520386,-1544,-300,1334,111009,2
107.52846145629883,-1465,-259,1256,111076,2
107.56812334060669,-1438,-258,1337,111151,2
107.60812497138977,-1432,-279,1460,111207,2
107.64812564849854,-1464,-303,1475,111236,2
107.68817663192749,-1471,-294,1420,111223,2
107.72819685935974,-1444,-292,1403,111276,2
107.76857280731201,-1402,-276,1376,111324,2
107.80812883377075,-1407,-327,1391,111358,2
107.84811878204346,-1529,-372,1506,111363,2
107.88862657546997,-1512,-362,1386,111374,2
107.92814922332764,-1436,-306,1245,111456,2
107.96816873550415,-1396,-285,1359,111221,2
108.00817155838013,-1386,-273,1475,110890,2
108.04815983772278,-1383,-267,1467,110750,2
108.08735728263855,-1421,-267,1395,110785,2
108.1271300315857,-1463,-310,1346,110864,2
108.16713809967041,-1564,-324,1361,110948,2
108.20711636543274,-1657,-299,1396,110997,2
108.24741339683533,-1517,-266,1367,110991,2
108.28724789619446,-1364,-293,1403,111005,2
108.32715678215027,-1232,-372,1361,111058,2
108.36713480949402,-1314,-343,1331,111124,2
108.44227409362793,-1536,-260,1405,111136,2
108.44716787338257,-1621,-235,1504,111156,2
108.48758053779602,-1484,-267,1464,111240,2
108.52732038497925,-1454,-299,1443,111132,2
108.56713604927063,-1447,-316,1458,110876,2
108.60726952552795,-1297,-395,1328,110761,2
108.64618444442749,-1236,-410,1199,110833,2
108.6866762638092,-1437,-294,1275,110889,2
108.72612571716309,-1628,-208,1515,110909,2
108.76612734794617,-1571,-180,1559,110968,2
108.80625104904175,-1479,-211,1452,111029,2
108.84646558761597,-1515,-228,1494,111066,2
108.88632082939148,-1520,-284,1498,111078,2
108.9262261390686,-1425,-310,1427,111143,2
108.96617412567139,-1450,-355,1425,111197,2
109.00613164901733,-1297,-413,1335,111265,2
109.04625010490417,-1242,-405,1159,111415,2
109.08615136146545,-1315,-404,1173,111425,2
109.12616896629333,-1413,-329,1266,111126,2
109.16622185707092,-1566,-221,1359,110903,2
109.20515060424805,-1636,-143,1476,110819,2
109.24513483047485,-1607,-131,1540,110838,2
109.28514385223389,-1576,-138,1550,110899,2
109.32520723342896,-1537,-185,1568,110970,2
109.36513113975525,-1484,-266,1535,110979,2
109.40517210960388,-1358,-367,1449,111005,2
109.4451494216919,-1333,-412,1335,111035,2
109.48515963554382,-1354,-433,1310,111080,2
109.52575206756592,-1311,-433,1208,111142,2
109.5651228427887,-1383,-405,1176,111209,2
109.60513305664062,-1503,-302,1344,111253,2
109.64519810676575,-1548,-238,1437,111228,2
109.6851258277893,-1539,-199,1524,110932,2
109.7244381904602,-1516,-205,1519,110742,2
109.7641372680664,-1478,-228,1494,110691,2
109.80415272712708,-1492,-248,1496,110719,2
109.84414553642273,-1425,-290,1444,110828,2
109.88419771194458,-1361,-351,1334,110930,2
109.9243016242981,-1414,-348,1316,110973,2
109.96416449546814,-1449,-340,1295,110968,2
110.0041561126709,-1455,-296,1342,110950,2
110.04420804977417,-1461,-269,1394,110946,2
110.08416819572449,-1471,-274,1432,110973,2
110.12484073638916,-1503,-262,1451,111025,2
110.16413760185242,-1489,-262,1452,111088,2
110.20416569709778,-1404,-271,1463,111148,2
110.24315214157104,-1388,-315,1402,110967,2
110.28315687179565,-1421,-311,1373,110799,2
110.32376718521118,-1441,-319,1338,110758,2
110.36320900917053,-1437,-303,1417,110773,2
110.40318417549133,-1423,-288,1439,110859,2
110.44319295883179,-1432,-272,1439,110969,2
110.48313760757446,-1448,-257,1451,111023,2
110.52334594726562,-1403,-258,1366,111066,2
110.5632050037384,-1459,-265,1348,111103,2
110.6032133102417,-1526,-272,1370,111108,2
110.64317631721497,-1508,-276,1349,111184,2
110.68313121795654,-1482,-287,1320,111258,2
110.72337555885315,-1459,-284,1291,111381,2
