Timestamp,AccX,AccY,AccZ,Heart_IR,Phase
0.003969669342041016,-675,-200,1900,116501,0
0.0437779426574707,-684,-182,1892,116519,0
0.08408164978027344,-692,-191,1916,116536,0
0.12401223182678223,-680,-210,1872,116536,0
0.16420388221740723,-679,-189,1922,116574,0
0.20400428771972656,-702,-183,1921,116560,0
0.24387788772583008,-675,-200,1906,116573,0
0.2837951183319092,-707,-180,1941,116552,0
0.3238646984100342,-670,-194,1918,116568,0
0.3638641834259033,-696,-183,1931,116546,0
0.4039192199707031,-679,-205,1899,116582,0
0.44388914108276367,-667,-186,1921,116607,0
0.4828047752380371,-674,-196,1899,116626,0
0.5228123664855957,-636,-197,1886,116649,0
0.5628488063812256,-677,-191,1904,116597,0
0.6033203601837158,-676,-166,1933,116548,0
0.6431200504302979,-671,-183,1899,116546,0
0.682927131652832,-637,-198,1939,116592,0
0.7228972911834717,-682,-171,1941,116605,0
0.7636401653289795,-656,-197,1937,116591,0
0.8027970790863037,-689,-187,1916,116567,0
0.8428163528442383,-657,-180,1937,116557,0
0.8829395771026611,-690,-172,1905,116542,0
0.9230341911315918,-675,-190,1912,116583,0
0.9622540473937988,-665,-175,1948,116601,0
1.0018060207366943,-692,-167,1920,116619,0
1.0419042110443115,-682,-163,1936,116623,0
1.0818185806274414,-644,-146,1924,116641,0
1.1223876476287842,-712,-80,1844,116653,0
1.1624078750610352,-732,-24,2059,116676,0
1.2024078369140625,-842,-23,1926,116662,0
1.2418859004974365,-751,-88,1883,116641,0
1.2819137573242188,-723,-167,1857,116618,0
1.3218400478363037,-666,-233,1877,116526,0
1.3618569374084473,-615,-310,2009,116445,0
1.401949405670166,-670,-403,1825,116437,0
1.4408304691314697,-660,-447,1798,116475,0
1.4808728694915771,-730,-401,2077,116482,0
1.5208020210266113,-568,-444,2078,116492,0
1.5610685348510742,-404,-427,2102,116517,0
1.6013422012329102,-470,-474,2100,116504,0
1.641162395477295,-513,-267,2280,116514,0
1.6807563304901123,-728,24,1760,116558,0
1.7209489345550537,-1089,274,2419,116629,0
1.7608346939086914,-1687,286,2142,116597,0
1.8010766506195068,-1119,109,1649,116552,0
1.8407394886016846,-812,85,1477,116537,0
1.8808534145355225,-574,90,1349,116537,0
1.919764757156372,-423,170,1712,116569,0
1.9596951007843018,-460,206,1653,116599,0
1.9999370574951172,-445,165,1698,116610,0
2.0396838188171387,-280,-9,1723,116614,0
2.0797441005706787,-82,-227,1798,116569,0
2.119633197784424,-264,-343,2052,116504,0
2.159674644470215,-785,-330,2167,116419,0
2.1998066902160645,-900,-489,1922,116391,0
2.239661693572998,-732,-495,1924,116330,0
2.279660940170288,-654,-515,2064,116306,0
2.3197567462921143,-664,-419,2116,116263,0
2.3640224933624268,-575,-366,2008,116266,0
2.3999037742614746,-747,-260,2038,116293,0
2.4391438961029053,-840,-192,1959,116319,0
2.4786925315856934,-905,-170,1902,116343,0
2.5486934185028076,-880,-202,1526,116382,0
2.558889389038086,-732,-331,1037,116378,0
2.599011182785034,-271,-446,842,116340,0
2.638745069503784,-447,-326,647,116315,0
2.678741931915283,-587,-535,1127,116320,0
2.718928098678589,-756,-551,1421,116290,0
2.7589364051818848,-629,-607,1575,116256,0
2.7987477779388428,-476,-854,1989,116274,0
2.838700771331787,-765,-788,1899,116189,0
2.878779888153076,-841,-922,2577,116143,0
2.917616367340088,-972,-912,1860,116110,0
2.9922826290130615,-608,-1166,2022,116135,0
2.998779773712158,-689,-1119,1603,116157,0
3.038071632385254,-635,-1137,1978,116182,0
3.077796697616577,-714,-1421,1587,116168,0
3.117675304412842,-420,-1456,1664,116158,0
3.157705068588257,-680,-1457,1630,116144,0
3.19769549369812,-803,-1595,1201,116116,0
3.237976312637329,-578,-1530,1008,116053,0
3.2776601314544678,-259,-1702,1125,116051,0
3.31764817237854,-593,-1769,998,116094,0
3.3576064109802246,-640,-1933,1047,116114,0
3.396592617034912,-572,-2002,1070,116091,0
3.436643600463867,-425,-1935,1294,116007,0
3.476681709289551,-331,-1897,1464,115970,0
3.5165512561798096,-399,-1803,1768,115873,0
3.556670665740967,-647,-1695,2149,115564,0
3.5971169471740723,-851,-1582,2152,115435,0
3.637812614440918,-867,-1717,1255,115629,0
3.6766357421875,-622,-1904,818,115672,0
3.7166318893432617,-630,-1910,784,115791,0
3.756608724594116,-811,-1835,546,115801,0
3.796607494354248,-596,-1858,652,115811,0
3.8373425006866455,-622,-1864,416,115794,0
3.875640869140625,-657,-1852,293,115801,0
3.9156758785247803,-600,-1846,390,115833,0
3.9556491374969482,-645,-1845,445,115886,0
3.995619535446167,-602,-1877,477,115902,0
4.036123991012573,-507,-1876,571,115933,0
4.075652360916138,-603,-1825,552,115932,0
4.115641832351685,-495,-1883,665,115937,0
4.155735731124878,-591,-1831,726,115940,0
4.195616722106934,-544,-1820,850,115929,0
4.235699653625488,-563,-1839,868,115914,0
4.275712966918945,-593,-1837,852,115817,0
4.314645528793335,-566,-1834,800,115795,0
4.354639291763306,-597,-1862,699,115800,0
4.394797086715698,-641,-1869,710,115807,0
4.434835195541382,-615,-1849,662,115820,0
4.474629878997803,-623,-1886,535,115810,0
4.51469612121582,-641,-1881,472,115797,0
4.554685115814209,-640,-1861,519,115787,0
4.594667196273804,-657,-1860,501,115789,0
4.634947776794434,-637,-1877,475,115765,0
4.674623727798462,-632,-1862,508,115706,0
4.714669942855835,-642,-1867,531,115706,0
4.754696369171143,-607,-1868,566,115733,0
4.793603181838989,-597,-1860,584,115781,0
4.833618879318237,-630,-1869,578,115823,0
4.873644590377808,-606,-1873,623,115834,0
4.913653612136841,-601,-1870,626,115887,0
4.953640699386597,-602,-1874,613,115914,0
4.993684768676758,-590,-1891,570,115813,0
5.033635377883911,-603,-1870,586,115581,0
5.073748350143433,-644,-1869,579,115507,0
5.1136229038238525,-649,-1880,549,115531,0
5.154221057891846,-626,-1874,534,115493,0
5.193638324737549,-605,-1872,549,115512,0
5.233814239501953,-630,-1860,543,115560,0
5.272614002227783,-618,-1861,573,115552,0
5.3128697872161865,-609,-1863,569,115558,0
5.3526411056518555,-612,-1870,574,115552,0
5.392606258392334,-611,-1894,550,115572,0
5.432631015777588,-597,-1874,589,115597,0
5.472634792327881,-637,-1872,577,115548,0
5.5131635665893555,-602,-1868,555,115561,0
5.5526416301727295,-622,-1882,558,115577,0
5.59266209602356,-610,-1882,560,115641,0
5.632636308670044,-643,-1870,525,115682,0
5.672846078872681,-608,-1874,519,115720,0
5.7116498947143555,-588,-1868,564,115728,0
5.751628875732422,-629,-1895,540,115711,0
5.791631460189819,-614,-1881,534,115607,0
5.8316285610198975,-595,-1861,573,115489,0
5.871791124343872,-621,-1879,565,115480,0
5.911609172821045,-594,-1885,548,115492,0
5.951663494110107,-618,-1863,560,115480,0
5.991610527038574,-611,-1866,562,115464,0
6.031656980514526,-618,-1875,559,115492,0
6.072660684585571,-634,-1883,549,115523,0
6.111791610717773,-611,-1882,554,115534,0
6.15165901184082,-619,-1867,547,115603,0
6.190660238265991,-617,-1883,544,115648,0
6.230655193328857,-625,-1866,569,115684,0
6.271302223205566,-609,-1877,553,115746,0
6.31060266494751,-614,-1883,538,115784,0
6.350690126419067,-590,-1878,590,115808,0
6.390663146972656,-625,-1880,543,115818,0
6.4306252002716064,-611,-1872,542,115820,0
6.470632314682007,-601,-1871,571,115837,0
6.510715484619141,-619,-1877,552,115848,0
6.5506556034088135,-614,-1883,551,115767,0
6.590755939483643,-635,-1865,566,115546,0
6.629642009735107,-619,-1876,558,115420,0
6.669780731201172,-635,-1866,561,115496,0
6.7096641063690186,-613,-1876,544,115554,0
6.749623537063599,-624,-1867,579,115626,0
6.789622068405151,-614,-1885,559,115667,0
6.8296217918396,-619,-1873,533,115674,0
6.869899749755859,-622,-1876,553,115640,0
6.909627914428711,-621,-1883,540,115655,0
6.949636220932007,-587,-1878,548,115690,0
6.989617347717285,-611,-1867,551,115715,0
7.0296666622161865,-598,-1880,551,115752,0
7.06963586807251,-611,-1870,564,115777,0
7.108715534210205,-624,-1869,588,115791,0
7.148641586303711,-619,-1901,530,115820,0
7.1886327266693115,-621,-1872,556,115824,0
7.228636980056763,-622,-1880,568,115826,0
7.268646478652954,-626,-1868,529,115812,0
7.308626174926758,-605,-1886,571,115792,0
7.34959602355957,-612,-1883,551,115649,0
7.388652324676514,-612,-1863,548,115390,0
7.428683280944824,-604,-1876,588,115308,0
7.46911096572876,-619,-1890,538,115302,0
7.50867223739624,-601,-1883,566,115318,0
7.548654317855835,-593,-1863,583,115335,0
7.587651491165161,-603,-1887,584,115367,0
7.627674579620361,-623,-1874,546,115367,0
7.66771674156189,-605,-1871,575,115337,0
7.707643032073975,-618,-1871,561,115359,0
7.747719049453735,-608,-1878,550,115377,0
7.787644624710083,-609,-1870,578,115377,0
7.827682971954346,-593,-1880,565,115383,0
7.867678880691528,-624,-1879,563,115345,0
7.907723665237427,-611,-1888,547,115368,0
7.947656154632568,-616,-1887,569,115363,0
7.987665176391602,-629,-1855,583,115378,0
8.026713371276855,-579,-1865,570,115364,0
8.066675424575806,-597,-1879,563,115384,0
8.106710195541382,-610,-1865,591,115386,0
8.146712064743042,-634,-1891,564,115358,0
8.186649799346924,-608,-1874,560,115218,0
8.22668719291687,-607,-1863,616,115156,0
8.266727447509766,-612,-1871,579,115204,0
8.307392120361328,-604,-1879,532,115221,0
8.346636533737183,-612,-1866,592,115206,0
8.386711835861206,-606,-1864,556,115189,0
8.426683902740479,-612,-1867,560,115195,0
8.466686487197876,-608,-1866,580,115223,0
8.505738258361816,-604,-1855,571,115209,0
8.545759677886963,-591,-1875,556,115193,0
8.585696935653687,-585,-1875,525,115169,0
8.625662565231323,-594,-1875,589,115126,0
8.665719747543335,-552,-1888,551,115076,0
8.705973148345947,-604,-1878,589,115044,0
8.745653629302979,-595,-1861,617,114999,0
8.785757541656494,-599,-1883,555,114967,0
8.825721263885498,-596,-1867,590,114942,0
8.865638017654419,-612,-1844,594,114940,0
8.905730724334717,-578,-1892,553,114935,0
8.945714712142944,-597,-1875,557,114849,0
8.98464846611023,-605,-1862,607,114766,0
9.024709224700928,-594,-1869,558,114775,0
9.064674615859985,-575,-1905,572,114809,0
9.104926347732544,-605,-1878,572,114805,0
9.144700288772583,-584,-1866,598,114852,0
9.184712171554565,-599,-1884,574,114854,0
9.224753618240356,-586,-1870,582,114846,0
9.264665365219116,-612,-1872,556,114832,0
9.304718732833862,-601,-1877,582,114836,0
9.345166206359863,-614,-1874,551,114833,0
9.384679079055786,-604,-1877,574,114853,0
9.424692869186401,-597,-1876,582,114878,0
9.463624715805054,-583,-1894,574,114896,0
9.503702878952026,-592,-1878,582,114906,0
9.54367733001709,-591,-1882,562,114887,0
9.583710432052612,-592,-1866,591,114910,0
9.623715162277222,-611,-1872,559,114929,0
9.664308071136475,-599,-1898,579,114883,0
9.703668594360352,-601,-1897,572,114706,0
9.743669986724854,-608,-1867,605,114530,0
9.783708810806274,-566,-1869,638,114571,0
9.823811769485474,-630,-1799,826,114570,0
9.863754749298096,-700,-1783,898,114586,0
9.90366506576538,-748,-1893,681,114549,0
9.942667722702026,-678,-1820,714,114472,0
9.982662677764893,-626,-1787,721,114419,0
10.022669792175293,-620,-1803,610,114409,0
10.062672138214111,-556,-1804,607,114407,0
10.102709293365479,-577,-1829,548,114428,0
10.142682552337646,-572,-1820,592,114399,0
10.182657718658447,-565,-1777,656,114377,0
10.222861051559448,-547,-1824,662,114341,0
10.262726068496704,-566,-1813,752,114335,0
10.302706718444824,-570,-1795,774,114369,0
10.343008995056152,-556,-1815,778,114405,0
10.381706953048706,-577,-1796,869,114418,0
10.42166256904602,-595,-1810,833,114401,0
10.46163010597229,-589,-1851,759,114307,0
10.501666784286499,-646,-1831,798,114104,0
10.541675806045532,-645,-1790,792,113982,0
10.58171558380127,-625,-1790,731,114013,0
10.621670484542847,-625,-1786,738,114065,0
10.661704778671265,-622,-1790,755,114097,0
10.70175576210022,-621,-1803,721,114148,0
10.742047786712646,-598,-1822,708,114182,0
10.781743288040161,-612,-1795,777,114223,0
10.821666955947876,-596,-1814,751,114260,0
10.860670328140259,-572,-1821,762,114306,0
10.90066146850586,-590,-1797,787,114336,0
10.94083833694458,-576,-1836,779,114376,0
10.980721712112427,-562,-1832,792,114409,0
11.02072525024414,-582,-1813,766,114452,0
11.060800075531006,-568,-1811,754,114484,0
11.100687503814697,-571,-1817,743,114500,0
11.140745162963867,-565,-1820,745,114486,0
11.18071722984314,-541,-1813,754,114488,0
11.220672845840454,-538,-1833,722,114431,0
11.260697603225708,-540,-1802,764,114199,0
11.300827264785767,-565,-1819,763,114017,0
11.340505599975586,-559,-1829,738,114070,0
11.379812479019165,-549,-1825,764,114148,0
11.419732570648193,-594,-1791,779,114167,0
11.459716320037842,-576,-1815,757,114218,0
11.499710321426392,-592,-1818,749,114243,0
11.539871454238892,-594,-1812,759,114264,0
11.579670906066895,-586,-1819,742,114279,0
11.619670391082764,-583,-1827,750,114294,0
11.659709930419922,-573,-1810,796,114324,0
11.699683666229248,-565,-1815,748,114341,0
11.739674806594849,-567,-1825,766,114371,0
11.779688596725464,-584,-1816,767,114430,0
11.818705320358276,-566,-1824,765,114471,0
11.858680248260498,-563,-1818,778,114498,0
11.898713111877441,-575,-1817,732,114521,0
11.938746452331543,-574,-1808,773,114542,0
11.978712797164917,-553,-1835,733,114477,0
12.01870608329773,-579,-1827,752,114238,0
12.058671474456787,-587,-1808,777,114140,0
12.098742723464966,-575,-1824,749,114211,0
12.138684272766113,-575,-1826,753,114257,0
12.178731918334961,-567,-1815,752,114252,0
12.21871280670166,-553,-1827,761,114314,0
12.25870656967163,-563,-1814,762,114326,0
12.297710180282593,-562,-1836,743,114349,0
12.337682485580444,-565,-1818,752,114379,0
12.37768006324768,-551,-1821,769,114415,0
12.417741060256958,-567,-1831,756,114451,0
12.457692861557007,-567,-1815,777,114468,0
12.497729301452637,-560,-1811,763,114487,0
12.537751197814941,-558,-1830,753,114494,0
12.577762126922607,-564,-1811,765,114473,0
12.61775541305542,-579,-1814,766,114491,0
12.657727003097534,-560,-1818,759,114489,0
12.697742223739624,-556,-1808,756,114525,0
12.736726760864258,-568,-1837,758,114505,0
12.776723861694336,-563,-1817,737,114296,0
12.816756963729858,-576,-1804,778,114168,0
12.856737613677979,-558,-1824,760,114239,0
12.896772384643555,-560,-1818,759,114275,0
12.936706066131592,-547,-1815,767,114304,0
12.97676944732666,-574,-1797,778,114331,0
13.01670527458191,-567,-1824,756,114334,0
13.056725978851318,-575,-1812,761,114300,0
13.09673810005188,-563,-1817,768,114332,0
13.137126684188843,-559,-1819,753,114347,0
13.177074432373047,-585,-1816,753,114398,0
13.221320390701294,-571,-1817,753,114424,0
13.26241135597229,-556,-1808,771,114431,0
13.295687913894653,-556,-1813,749,114459,0
13.335726261138916,-567,-1820,747,114478,0
13.376042366027832,-573,-1810,777,114491,0
13.415705680847168,-557,-1827,763,114501,0
13.455739498138428,-573,-1809,761,114500,0
13.495813131332397,-561,-1802,789,114471,0
13.535789728164673,-562,-1832,761,114388,0
13.575945377349854,-569,-1805,776,114172,0
13.616575479507446,-578,-1815,783,114105,0
13.655739784240723,-566,-1818,772,114186,0
13.694815158843994,-572,-1815,773,114208,0
13.734721422195435,-553,-1808,776,114239,0
13.775782346725464,-548,-1811,783,114280,0
13.814738988876343,-570,-1817,766,114291,0
13.854774951934814,-557,-1815,778,114314,0
13.894720792770386,-544,-1815,784,114319,0
13.93480110168457,-548,-1818,770,114332,0
13.974776983261108,-569,-1813,780,114329,0
14.0149507522583,-554,-1817,782,114332,0
14.054711818695068,-559,-1823,783,114350,0
14.094712734222412,-569,-1823,778,114389,0
14.133742570877075,-564,-1820,782,114399,0
14.173970699310303,-568,-1808,780,114418,0
14.213776350021362,-550,-1815,791,114433,0
14.253756761550903,-551,-1801,777,114457,0
14.293737649917603,-575,-1821,764,114482,0
14.333725929260254,-561,-1825,755,114519,0
14.373754739761353,-574,-1806,780,114400,0
14.413736343383789,-574,-1819,782,114261,0
14.453720092773438,-563,-1812,806,114278,0
14.493767261505127,-564,-1803,787,114291,0
14.533945798873901,-575,-1802,785,114310,0
14.573723554611206,-571,-1806,806,114300,0
14.612781524658203,-578,-1789,977,114299,0
14.652724266052246,-562,-1812,888,114313,0
14.692716121673584,-594,-1814,777,114327,0
14.732720375061035,-557,-1780,808,114329,0
14.772749900817871,-521,-1771,755,114350,0
14.812755346298218,-557,-1790,704,114356,0
14.852710485458374,-676,-1811,881,114341,0
14.892728328704834,-641,-1794,822,114318,0
14.932752132415771,-856,-1916,1086,114305,0
14.972781419754028,-1099,-2050,1171,114276,0
15.012756586074829,-1333,-2318,1832,114264,1
15.052776336669922,-1391,-3134,1986,114237,1
15.091870546340942,-1981,-3551,2291,114176,1
15.13176441192627,-1098,-3214,2232,114042,1
15.171898126602173,-859,-1933,1123,113900,1
15.211821794509888,-188,-271,942,113855,1
15.25172472000122,-947,466,821,113986,1
15.29176664352417,-1714,1556,1575,114054,1
15.33176040649414,239,967,1459,114006,1
15.37168550491333,362,1733,824,114007,1
15.411885976791382,-893,3031,1516,114167,1
15.451768398284912,-1938,3877,1849,114590,1
15.491773843765259,-2373,3995,2809,114440,1
15.53177285194397,360,-1856,-1346,114363,1
15.570748329162598,665,-8290,1164,114706,1
15.610944271087646,-1954,-5916,4509,115161,1
15.650742530822754,-4863,2785,3936,114483,1
15.690816164016724,4143,-2673,-1104,114791,1
15.730727910995483,-320,-188,320,115416,1
15.770717859268188,-723,38,2493,115835,1
15.81098985671997,-1350,-360,2085,116022,1
15.850770473480225,-609,-1363,2571,116254,1
15.890756607055664,-870,-2058,2522,115984,1
15.93082857131958,-223,-2980,2204,115383,1
15.970712423324585,-970,-473,425,115414,1
16.009873151779175,701,658,1877,115566,1
16.049763679504395,-370,2119,1973,115457,1
16.089720249176025,-3316,4586,14,115289,1
16.129729747772217,865,3457,1871,114575,1
16.169759511947632,334,1956,518,114392,1
16.209898948669434,-1643,1671,589,114426,1
16.249865770339966,-2418,1189,986,114400,1
16.28979468345642,-1179,1645,1743,114274,1
16.329766035079956,354,3300,1549,114156,1
16.369756937026978,685,5280,405,114112,1
16.40985870361328,-1088,5371,2012,114078,1
16.44878602027893,139,2279,1726,113954,1
16.488852739334106,578,-6872,119,114756,1
16.528766870498657,-3828,-12358,4568,118617,1
16.568782567977905,-7692,3669,5795,117589,1
16.60884189605713,6436,-9823,960,115075,1
16.648794651031494,-1602,-4936,1517,113969,1
16.6888484954834,3565,-2659,1674,113541,1
16.72873330116272,1007,5242,-1089,115168,1
16.768779516220093,-4001,13834,-4210,115374,1
16.808725357055664,3960,5658,5963,115883,1
16.848761558532715,-3034,6125,2551,115489,1
16.88875460624695,-2075,-931,-1826,115289,1
16.927764654159546,28,-8029,808,115474,1
16.96776533126831,-244,-12596,7011,117967,1
17.007791996002197,-9334,1530,2130,116131,1
17.047807931900024,6082,-10997,4174,113788,1
17.087834119796753,835,-3292,393,113866,1
17.127973794937134,4709,3202,436,116787,1
17.16781973838806,-8790,17570,-6417,120291,1
17.207735538482666,3059,6956,4525,120034,1
17.248135805130005,-1297,759,-4198,119877,1
17.287805795669556,-1414,-6955,771,117943,1
17.327800512313843,522,-11192,9032,113708,1
17.36781072616577,-6450,-4014,6878,111902,1
17.406748056411743,6806,-4719,-2834,111021,1
17.446799516677856,1917,7366,-641,113508,1
17.486806392669678,-4109,15614,-2623,113699,1
17.52678418159485,2473,3578,2573,113873,1
17.566784143447876,-3378,-4361,-2339,115944,1
17.606775522232056,-805,-12898,6076,116466,1
17.646822929382324,-9275,509,3759,115475,1
17.686803102493286,4511,-9311,1401,113923,1
17.72678852081299,3218,2687,-457,113814,1
17.76680850982666,2157,11083,-1710,113890,1
17.806772708892822,-3123,6988,-1954,113854,1
17.845824718475342,580,-3166,634,114180,1
17.885853052139282,-1879,-10601,3176,116879,1
17.925827980041504,-6741,-1926,5037,117389,1
17.965790510177612,368,-8721,2847,114348,1
18.005711793899536,4037,-2773,-47,114160,1
18.045944690704346,721,6107,-905,113883,1
18.08582854270935,-2264,13102,-2236,114118,1
18.125757217407227,-507,4287,1235,114406,1
18.16581392288208,-908,-4199,-628,114665,1
18.205806255340576,-2920,-13176,3697,114499,1
18.246211528778076,-8996,1018,6540,113409,1
18.285788774490356,6217,-11423,-196,112840,1
18.32480025291443,3430,2429,94,113201,1
18.364757537841797,-555,13572,-2875,115536,1
18.404809713363647,-186,7537,-788,115766,1
18.445276260375977,586,-2711,78,116309,1
18.48479652404785,-2171,-13772,1224,117373,1
18.5248064994812,-7904,-323,7832,113733,1
18.56477189064026,4937,-11691,1025,112214,1
18.60477328300476,2930,1490,-1854,112765,1
18.644953966140747,-2191,14969,-2289,113579,1
18.68478751182556,310,5989,1387,113582,1
18.72482919692993,-175,-4153,-1625,115074,1
18.76481604576111,-3450,-12715,4920,115502,1
18.803777933120728,-8452,-16,6989,112932,1
18.843790292739868,6235,-11087,-1386,112951,1
18.883885145187378,3284,5076,-946,113050,1
18.923820734024048,-423,15208,-2719,113216,1
18.96376061439514,-1635,2690,-3122,113243,1
19.00383996963501,-732,-10354,506,115381,1
19.04379105567932,-4436,-5521,9953,112795,1
19.08402132987976,-301,-9119,4454,115889,1
19.123785257339478,6179,-2851,-3677,112155,1
19.163789749145508,-164,10666,144,111811,1
19.203834533691406,-5382,11750,2908,112201,1
19.24326181411743,3363,-1406,-1715,113339,1
19.282778024673462,-3648,-13267,892,113921,1
19.322887659072876,-4678,-3018,8863,110709,1
19.362802743911743,3576,-11348,-1433,110131,1
19.402816772460938,4722,2172,-804,112824,1
19.443171739578247,-1471,15737,-2697,114716,1
19.48278570175171,-938,4514,-1367,114560,1
19.52284598350525,169,-7554,270,115640,1
19.562815189361572,-3755,-10667,8023,112344,1
19.60284686088562,-4746,-4620,4937,110841,1
19.642813682556152,7093,-5443,-1259,113727,1
19.682815313339233,2456,11077,-2776,116920,1
19.72187852859497,-3758,9595,-508,117596,1
19.761747121810913,-855,-471,66,118180,1
19.801837682724,-3010,-15480,1713,116711,1
19.84181237220764,-8184,475,8223,112268,1
19.881771564483643,7023,-11284,-41,113528,1
19.92187237739563,1869,4544,-2212,113834,1
19.961771249771118,-811,12830,1109,114343,1
20.001818656921387,-1041,2973,474,114494,1
20.04177212715149,31,-8435,-724,116306,1
20.081910371780396,-4128,-7796,7312,115520,1
20.121846914291382,-3274,-5825,3897,113422,1
20.16204810142517,5374,-4567,-2337,114000,1
20.20079278945923,2901,11504,-2581,115687,1
20.240798473358154,-1660,9245,-946,116532,1
20.28080153465271,431,-700,918,116741,1
20.32081413269043,-2110,-14845,2120,116834,1
20.361297845840454,-9803,2165,7318,113780,1
20.400808811187744,5306,-14027,2551,114533,1
20.440773963928223,2334,1088,-3565,116290,1
20.481369256973267,2217,12241,-308,117363,1
20.52078914642334,-2075,5506,415,117745,1
20.56080985069275,-136,-5062,388,118247,1
20.60079026222229,-3681,-11258,4646,116648,1
20.63979721069336,-8326,80,5449,114525,1
20.68013572692871,7788,-9138,-173,114553,1
20.71986198425293,1573,5921,-2016,116173,1
20.759832620620728,-25,10975,-731,117207,1
20.79982352256775,-518,3913,2053,117340,1
20.83980941772461,-38,-8454,-645,117991,1
20.87993550300598,-5741,-8643,6384,114304,1
20.91985321044922,-2499,-6596,5095,113240,1
20.95983576774597,5107,-2897,-3952,114795,1
20.999794483184814,3123,13367,-2968,116978,1
21.03977060317993,-664,7122,1264,117909,1
21.079354763031006,42,-3231,1002,118118,1
21.11884093284607,-3941,-13932,2187,117046,1
21.158859491348267,-9187,1494,8611,112423,1
21.198812246322632,6921,-11133,315,114845,1
21.238808631896973,1233,4923,-3224,117552,1
21.27914524078369,101,11460,255,118459,1
21.318841457366943,-1657,3999,3450,118387,1
21.35880398750305,-737,-7025,-1971,119599,1
21.39884352684021,-3436,-9166,6409,115681,1
21.438841104507446,-5583,-3527,4742,113605,1
21.47887349128723,5885,-6799,-1062,115010,1
21.518833875656128,1605,3813,-1586,115787,1
21.55795121192932,-419,10914,-1162,117156,1
21.59791922569275,-304,5964,1072,117690,1
21.63776683807373,1304,57,2249,117521,1
21.67785882949829,-1308,-10300,1303,118554,1
21.71795344352722,-8359,-2627,5508,117098,1
21.757821321487427,-3028,-3394,4163,114958,1
21.7978093624115,3742,-4027,367,114443,1
21.837830781936646,694,6841,-1317,114823,1
21.877813816070557,689,9023,230,115137,1
21.917795181274414,-175,3883,1692,115195,1
21.957794427871704,173,-5410,58,115294,1
21.997864961624146,-4843,-6618,3837,116545,1
22.036810636520386,-5167,-2162,4671,115166,1
22.076805114746094,3279,-5940,2252,114708,1
22.116825580596924,2111,5580,-3183,115820,1
22.156858921051025,5423,10026,-2503,116683,1
22.196813583374023,610,4961,-2355,117329,1
22.236985206604004,-551,-2004,379,117985,1
22.27683448791504,-2759,-11014,1712,118969,1
22.316850185394287,-12300,2776,2460,117637,1
22.356805086135864,-956,-6081,1510,116244,1
22.396819829940796,-729,-3452,1294,115711,1
22.43680715560913,3429,4707,393,115806,1
22.475817680358887,3369,8238,-735,116078,1
22.51578164100647,1501,5771,-23,116371,1
22.555861949920654,-141,-588,364,116512,1
22.59581732749939,-2160,-8378,602,118755,1
22.63580822944641,-10258,940,2232,118163,1
22.67584776878357,-2447,-5441,1896,116958,1
22.715969562530518,-982,-1238,830,116831,1
22.755834817886353,673,5375,30,116248,1
22.79607605934143,3808,9120,-339,115883,1
22.835851907730103,3909,6513,2247,115955,1
22.875776290893555,2189,548,465,116016,1
22.915902853012085,-797,-10179,583,117505,1
22.955846548080444,-11972,-1526,2740,118108,1
22.99482011795044,-5238,-685,219,116339,1
23.034844636917114,-1407,-3519,492,115952,1
23.074830293655396,-470,-2304,2247,115853,1
23.11522650718689,-159,1460,1668,115821,1
23.154822826385498,-49,4624,-72,115647,1
23.194857835769653,2827,7436,-804,115682,1
23.234833240509033,5062,7210,-6,115625,1
23.274852991104126,3604,3900,-331,115687,1
23.314839601516724,2104,-104,82,115685,1
23.354859113693237,-569,-9540,791,117278,1
23.393916130065918,-12514,3529,6247,114274,1
23.467867136001587,-3796,-630,-2457,115422,1
23.47394633293152,-1859,-1997,-1195,115964,1
23.514001846313477,-1055,-1594,3281,116329,1
23.553840398788452,623,2885,2613,116149,1
23.59386396408081,3358,6558,1627,115731,1
23.633851766586304,6764,7547,1626,115958,1
23.674787998199463,4441,3223,-1008,116762,1
23.71397566795349,1394,-2959,1232,117283,1
23.754374265670776,-5641,-6324,1558,120010,1
23.7946720123291,-8936,3240,1082,117179,1
23.83384656906128,530,-2891,-2592,115782,1
23.87346839904785,-533,-1555,1148,115960,1
23.91296148300171,-657,3004,2478,115793,1
23.952863216400146,3531,7518,1621,115705,1
23.992855310440063,4113,7314,1832,115824,1
24.03281259536743,2832,3359,-805,116232,1
24.072810173034668,607,-3460,2707,116786,1
24.112848043441772,-8034,-3703,-2420,116638,1
24.152845859527588,-2932,-121,-2468,115697,1
24.19287085533142,-309,-1927,-674,115739,1
24.232805252075195,163,750,2082,115527,1
24.272847414016724,-491,1547,1670,115700,1
24.312827587127686,1601,1666,1628,115798,1
24.351906538009644,601,1527,778,116007,1
24.39193868637085,1143,1198,267,116009,1
24.43178915977478,202,1217,660,116050,1
24.47182059288025,-788,2981,-147,116152,1
24.51182723045349,-1852,5763,-332,116289,1
24.55192995071411,-2191,4716,-465,116572,1
24.591862440109253,-1773,1069,906,116417,1
24.63196063041687,-1374,-4799,1393,117173,1
24.67183566093445,-4965,-6214,6289,118092,1
24.7118182182312,-8982,1360,991,115566,1
24.752243757247925,1037,-4064,2701,114774,1
24.79183268547058,-1042,-1821,2403,115153,1
24.830851316452026,1121,2278,-1330,116425,1
24.87084460258484,416,7625,-3631,117575,1
24.910820484161377,-379,3759,-1431,118254,1
24.95107913017273,-824,-990,1873,119080,1
24.990868091583252,-244,-8115,3264,119259,1
25.03084707260132,-6650,340,4473,117380,1
25.07084846496582,810,-5947,3898,115452,1
25.110851287841797,2215,-1339,-342,115450,1
25.151443481445312,1080,6254,27,115764,1
25.190824270248413,841,7984,-3445,115903,1
25.23086643218994,-1241,3562,-1558,116186,1
25.270897388458252,-352,-4440,1667,116783,1
25.30987024307251,-415,-9204,5995,116818,1
25.349878311157227,-8835,2959,4580,115416,1
25.389954805374146,3317,-6507,3881,115465,1
25.429821491241455,782,-1777,348,115228,1
25.46981453895569,2000,5322,945,114525,1
25.50985312461853,995,7981,-1804,115321,1
25.550291538238525,-236,3004,-1223,115912,1
25.589865684509277,-1273,-2456,1707,116860,1
25.62988018989563,-1246,-7568,6109,117949,1
25.669844150543213,-8111,2445,3545,116261,1
25.710124969482422,2473,-6087,3823,115229,1
25.750015020370483,570,-1140,216,114905,1
25.788959503173828,718,5777,-77,115156,1
25.828839540481567,365,6942,-962,115497,1
25.868812561035156,981,3318,-32,116214,1
25.90898299217224,158,-2412,1642,116891,1
25.948992013931274,-433,-6365,3832,117412,1
25.988850593566895,-7173,195,2860,116832,1
26.02884340286255,1043,-5033,5230,114269,1
26.06882905960083,2347,-1943,729,115304,1
26.108826160430908,2013,4718,-93,115277,1
26.148836374282837,780,8683,-1892,115709,1
26.188854694366455,884,5377,-2226,116216,1
26.229053020477295,-110,-1219,973,116980,1
26.267872095108032,-266,-9452,3933,117212,1
26.307840824127197,-7813,608,5359,116414,1
26.34847140312195,-164,-6320,5205,115465,1
26.387904405593872,1685,-4687,1414,115588,1
26.42784094810486,1734,-950,1678,115648,1
26.46782088279724,1195,2516,638,115786,1
26.50785541534424,1259,6421,670,116143,1
26.547914743423462,-5082,10738,-3012,115913,1
26.587868213653564,-142,6173,-278,115563,1
26.62787652015686,-1505,2114,-2310,115843,1
26.66789436340332,-829,-4625,1877,115732,1
26.707880973815918,462,-12987,7330,117054,1
26.74699831008911,-10809,4168,5246,115239,1
26.78703236579895,4341,-12900,4626,114702,1
26.827032566070557,1541,-5390,-657,114291,1
26.86688232421875,4384,-139,3515,114932,1
26.906872034072876,4972,6501,-740,117841,1
26.946931838989258,-4842,13871,-5953,119680,1
26.986896514892578,435,5842,2859,119590,1
27.027016639709473,-342,-3740,-3805,120463,1
27.067200183868408,-224,-17102,5261,118485,1
27.1081063747406,-8071,-598,7847,115452,1
27.146844148635864,4626,-8679,528,116342,1
27.187300443649292,4658,7775,-602,116752,1
27.226020336151123,755,14384,-3730,117580,1
27.265886068344116,-228,1177,-2277,118223,1
27.305875062942505,-4756,-13023,1033,119107,1
27.345862865447998,-7709,-5794,11418,115666,1
27.385889530181885,2715,-10959,1858,115564,1
27.425851106643677,4079,2389,593,116585,1
27.465861082077026,6403,14239,-4107,118645,1
27.50589108467102,1445,3750,-1610,120088,1
27.545883178710938,-1464,-8699,5341,120985,1
27.586193084716797,-8752,-5289,7123,117087,1
27.62608504295349,-185,-7960,6018,115630,1
27.664876461029053,3242,-431,-3408,116319,1
27.7048659324646,3238,12095,-1542,116601,1
27.74515986442566,334,7308,842,117699,1
27.78498673439026,1014,-4325,1055,119635,1
27.824989795684814,-5730,-10068,3533,118442,1
27.864978790283203,-3992,-3529,6233,115652,1
27.904887437820435,3226,-5658,-2869,116407,1
27.944979429244995,1604,11954,-1863,116126,1
27.985188722610474,3253,10443,-2046,117326,1
28.02483582496643,436,2099,1924,120025,1
28.064928770065308,-2382,-16384,5291,120736,1
28.104912042617798,-11828,1006,4163,115732,1
28.14387583732605,4905,-10511,3218,116743,1
28.184188842773438,546,3315,-2305,116429,1
28.223975658416748,2637,14608,-1062,115539,1
28.263913869857788,4718,2182,-383,117009,1
28.303906202316284,-2749,-9573,4835,120327,1
28.344003438949585,-9070,-4382,2843,118830,1
28.383853673934937,1775,-7716,3787,116932,1
28.42385959625244,1887,4219,-2000,116610,1
28.463871717453003,7701,13116,-2446,116353,1
28.503912925720215,1837,2712,-140,118471,1
28.543898105621338,-1532,-8689,3623,120457,1
28.582908391952515,-5943,-7226,3135,116441,1
28.622869968414307,-6232,-2582,5727,113645,1
28.66287398338318,4920,-5166,310,115462,1
28.702953577041626,-1067,8962,-3001,115032,1
28.742905855178833,1411,9187,-626,115399,1
28.782883882522583,-174,3416,2371,116572,1
28.822911024093628,-1535,-9933,452,118078,1
28.862935066223145,-8220,-3502,4573,115519,1
28.90288257598877,-3344,-5177,4515,114428,1
28.9430570602417,2104,-4511,-1085,115815,1
28.982847213745117,-280,6030,816,115726,1
29.02358388900757,3674,9332,-236,116263,1
29.061899185180664,1565,5125,983,117455,1
29.10185742378235,156,-549,975,118447,1
29.141932249069214,-426,-9065,1574,118769,1
29.181934595108032,-8805,-2060,2511,118458,1
29.22191023826599,-3239,-4833,3727,117047,1
29.261907815933228,2210,-2800,-140,116476,1
29.301880836486816,2884,10149,-1693,116791,1
29.341909408569336,5284,6950,-303,118270,1
29.381922721862793,-1079,298,1679,120540,1
29.421903610229492,-2071,-9495,3241,121876,1
29.4619140625,-10279,-660,1393,119185,1
29.500901222229004,715,-7928,5992,117332,1
29.540823221206665,264,423,90,117193,1
29.58089280128479,6275,11484,-1417,118144,1
29.62112593650818,2611,5902,-2142,120625,1
29.66092801094055,-2572,-1644,747,122729,1
29.700892210006714,-652,-11704,3250,120636,1
29.740946531295776,-11627,-778,3758,116635,1
29.78086805343628,-3238,-5397,3159,116070,1
29.82146120071411,-537,-4573,946,116141,1
29.860892295837402,323,2432,908,117111,1
29.900932788848877,2842,8396,-1620,117432,1
29.94091248512268,3908,6576,-1290,117945,1
29.979886293411255,713,-66,-764,119492,1
30.01993751525879,-2037,-7762,1122,117730,1
30.05994939804077,-8348,-3252,4913,115725,1
30.099897623062134,-6097,-4300,2839,115666,1
30.13987398147583,1989,-4549,-280,115064,1
30.1799259185791,3763,10386,-8,113712,1
30.220351696014404,7018,8175,238,113795,1
30.260440349578857,-1172,-284,-513,114147,1
30.299951553344727,-2469,-9644,464,115393,1
30.339930772781372,-10318,687,4842,114890,1
30.37994647026062,-4484,-6076,2412,114078,1
30.418960094451904,807,-3864,66,112916,1
30.458935260772705,1200,6471,1525,113266,1
30.49897289276123,5992,8952,-392,116599,1
30.538907289505005,393,4425,-888,117483,1
30.57893705368042,-857,-2150,201,118218,1
30.61895728111267,-3056,-8581,-482,117386,1
30.658918857574463,-11112,-268,4393,112291,1
30.69890069961548,-118,-6652,2351,113040,1
30.73889708518982,270,1882,-195,114515,1
30.778913736343384,6376,9499,1505,116173,1
30.818969249725342,1835,4918,-165,117549,1
30.858983516693115,1060,-1484,4,119475,1
30.897928476333618,-2715,-9049,-402,116726,1
30.937947988510132,-11247,240,3544,87144,1
30.977901697158813,-4542,-4903,1683,114656,1
31.01792311668396,-256,-3120,594,115728,1
31.05792784690857,2991,6737,-523,116321,1
31.09790277481079,6429,7335,-388,117828,1
31.137890338897705,-141,-135,-1141,119285,1
31.177889108657837,-3606,-7092,293,120233,1
31.21792197227478,-9865,-1992,1966,115637,1
31.25792384147644,-6692,-5561,2156,114190,1
31.29793381690979,647,-1806,308,115043,1
31.33691906929016,2820,7054,705,116773,1
31.37690234184265,7913,9172,1777,117389,1
31.41746759414673,3148,3243,-158,117483,1
31.4569673538208,-392,-7209,-711,117414,1
31.49691367149353,-6489,-10456,2256,114574,1
31.536962747573853,-13228,4272,2281,111970,1
31.57690691947937,1291,-10042,1057,112244,1
31.616892337799072,-1052,-1072,790,112108,1
31.656980276107788,4828,7518,1337,113518,1
31.696890115737915,5081,6195,1107,114590,1
31.7369601726532,-77,-1408,-815,115060,1
31.77696204185486,-2907,-8218,-33,116641,1
31.815959453582764,-11985,-309,1668,115791,1
31.855912685394287,-5710,-8012,1242,113884,1
31.895955324172974,758,-690,609,113361,1
31.935935020446777,4926,10009,-879,113538,1
31.975934505462646,4225,6057,1083,113905,1
32.01589393615723,-859,-656,1039,114400,1
32.05661654472351,-5422,-11767,-3170,115584,1
32.096014738082886,-11185,-345,3620,113646,1
32.1363570690155,1650,-8166,1306,113697,1
32.17590093612671,2167,6984,-2363,114465,1
32.215906381607056,10127,10316,1723,115031,1
32.25498414039612,-759,1693,228,116855,1
32.29493498802185,-3797,-16015,1695,117171,1
32.33498787879944,-12481,-1623,-22,118151,1
32.37491273880005,-297,-8406,4929,111686,1
32.41495323181152,2083,5311,-3228,112123,1
32.45501899719238,8363,12447,375,113754,1
32.494905948638916,1092,29,-1582,115271,1
32.534972190856934,-6733,-15024,218,117122,1
32.57560467720032,-8994,-5412,4397,114368,1
32.6149001121521,753,-2956,1596,113736,1
32.65497422218323,3534,13808,-2394,114179,1
32.69489860534668,8295,8401,1699,115048,1
32.73395538330078,-2006,-3556,495,118266,1
32.77396082878113,-11381,-12153,-3773,118914,1
32.81392741203308,-6340,-5913,4061,115935,1
32.85418176651001,541,-1613,615,114784,1
32.89397430419922,8274,13681,-1056,114636,1
32.933900594711304,4053,5927,-1763,117378,1
32.97395038604736,-5145,-12665,3639,121084,1
33.01397728919983,-15953,-3989,-703,115819,1
33.05438995361328,1695,-4121,5254,113674,1
33.09393906593323,6520,11816,-3202,114749,1
33.13446569442749,9026,6745,181,116481,1
33.17395305633545,-2824,-6948,2104,120922,1
33.21296739578247,-14668,-5829,-6557,119972,1
33.25343728065491,-4046,-6461,5672,116003,1
33.29290723800659,278,1492,479,115157,1
33.33295702934265,12267,13013,745,115947,1
33.37346148490906,3275,553,-2664,119049,1
33.41295599937439,-11956,-17637,1141,119796,1
33.45309495925903,-10206,-6000,1435,115439,1
33.492931842803955,480,-3242,3099,114394,1
33.53317904472351,8527,12410,-279,116367,1
33.590169191360474,7134,6260,-444,118705,1
33.612915992736816,-1410,-8103,2712,120909,1
33.65205407142639,-15066,-7414,-4503,119390,1
33.691946029663086,-2180,-7925,4537,116072,1
33.73192238807678,-556,1725,1188,115989,1
33.771968126297,12786,11781,3562,120032,1
33.81191396713257,761,2651,-2236,123113,1
33.852428913116455,-3971,-14743,1514,122940,1
33.892640113830566,-14894,-3164,-3430,119948,1
33.93192005157471,717,-6546,6418,117986,1
33.97266244888306,189,4538,-599,117262,1
34.011951208114624,10081,11656,1629,117870,1
34.05192542076111,1030,1456,-1317,120568,1
34.09191632270813,-8530,-15751,580,121797,1
34.130995750427246,-10765,-5038,-567,118855,1
34.17092251777649,1537,-3835,4332,117964,1
34.210936307907104,4853,11482,-1087,118303,1
34.25092315673828,8826,8856,2609,119270,1
34.29096794128418,-157,-3786,-2221,122628,1
34.33099126815796,-6332,-10701,1615,123614,1
34.37098789215088,-13637,609,-1252,120436,1
34.41091966629028,1325,-8115,2632,118154,1
34.45099639892578,-321,1208,-374,117553,1
34.4909725189209,5060,11327,-613,117636,1
34.530908823013306,5338,6345,-886,119426,1
34.56992506980896,-581,-5522,1780,123448,1
34.60997128486633,-14022,-8640,-3598,122366,1
34.64995217323303,-3730,-5748,3617,119114,1
34.68994736671448,1334,6518,1530,117753,1
34.72992181777954,13481,9411,4814,118799,1
34.76992607116699,1117,-210,-188,121643,1
34.80996036529541,-9311,-14221,-1925,122797,1
34.849990129470825,-12001,-2498,-2134,119301,1
34.89077639579773,1526,-5078,3500,116687,1
34.929908990859985,156,3917,1345,117063,1
34.96995425224304,11082,10199,1872,117229,1
35.00992035865784,3830,2234,-1465,119654,1
35.048940896987915,-3335,-11195,2549,119722,1
35.08903503417969,-18632,-1448,-2775,115846,1
35.12935519218445,844,-9075,3418,113646,1
35.168946981430054,55,3300,1060,114427,1
35.208935260772705,14396,8954,4015,114589,1
35.2490029335022,1044,57,-1107,117911,1
35.28981852531433,-2834,-11124,3260,114419,1
35.32898712158203,-15831,1242,-4838,113827,1
35.369123220443726,-84,-9601,2734,113519,1
35.40894174575806,-2819,-1926,-1020,113823,1
35.448952436447144,3317,6786,679,115119,1
35.4881010055542,6316,9413,1124,116721,1
35.52796006202698,1722,3609,901,118745,1
35.56791067123413,234,-5230,721,120346,1
35.60800218582153,-6572,-10042,-342,115865,1
35.648011445999146,-12013,440,-1858,115622,1
35.68796634674072,1694,-7687,1864,114377,1
35.72796559333801,-46,3243,-38,115123,1
35.76794719696045,5596,8583,-1046,115893,1
35.807963371276855,3642,4861,2038,117423,1
35.847944498062134,-320,-2595,1740,118295,1
35.88800549507141,-5883,-8412,-1198,118244,1
35.92797875404358,-9079,-623,-1802,116285,1
35.96691942214966,-818,-5798,1800,115923,1
36.00714731216431,-600,-521,269,116235,1
36.046916007995605,2062,5851,-607,116618,1
36.086982011795044,3734,8158,-1552,116811,1
36.126933097839355,1879,4215,8,117042,1
36.16691207885742,362,-1552,369,117746,1
36.2070677280426,-3236,-7791,-747,118737,1
36.2470223903656,-9975,-2875,-966,118311,1
36.28699064254761,-5074,-4926,-213,117514,1
36.327133655548096,974,-1736,1595,117038,1
36.36695861816406,1257,6487,-640,116751,1
36.405911445617676,5796,8335,574,116637,1
36.44600296020508,1446,3457,-1160,117228,1
36.485936403274536,388,-4466,-1421,118057,1
36.52598810195923,-4791,-11327,750,119086,1
36.56602621078491,-14052,-38,-1065,117629,1
36.605957984924316,1471,-8884,2162,115963,1
36.645983934402466,-228,1671,459,116000,1
36.685954570770264,4005,7229,-230,115882,1
36.72592735290527,4011,5594,-7,116198,1
36.76634764671326,1031,-286,-524,117307,1
36.805978298187256,-1866,-6434,-47,118482,1
36.84502959251404,-10814,-5293,-102,116710,1
36.88513207435608,-7658,-4881,-840,115847,1
36.92552638053894,2798,-3447,2367,115685,1
36.9651312828064,1086,5177,-297,115857,1
37.004942178726196,7762,8228,1329,116242,1
37.04500126838684,2318,4288,-870,117668,1
37.08494997024536,278,-2678,-480,118839,1
37.12497878074646,-1476,-10622,-202,119363,1
37.165016412734985,-15554,1330,-2237,117597,1
37.205153703689575,-1387,-8995,737,115210,1
37.244969844818115,-1687,-1458,835,116507,1
37.28512406349182,2242,4640,1055,116341,1
37.32403492927551,5376,8184,627,117204,1
37.363996267318726,2824,3138,-362,118590,1
37.404152154922485,-386,-4220,-638,120127,1
37.44399285316467,-3800,-9336,1880,116136,1
37.48398160934448,-12696,478,-1832,115736,1
37.52445864677429,-963,-8460,1347,114835,1
37.56394696235657,-895,-1205,481,115614,1
37.60392475128174,2792,6088,260,115770,1
37.64394450187683,6835,7756,896,116576,1
37.683953523635864,1648,1269,-1103,118033,1
37.724225997924805,-358,-7213,909,118286,1
37.762964725494385,-8798,-8478,394,109014,1
37.80304765701294,-13151,-681,-1335,107960,1
37.842957735061646,2288,-6052,3081,108363,1
37.882994413375854,3306,7099,-1939,109747,1
37.92315196990967,7806,3367,2890,118018,1
37.96297264099121,-1966,-4618,-346,118851,1
38.00313067436218,-9080,-6521,535,115725,1
38.04318046569824,-7741,-2757,-1509,116930,1
38.08314251899719,733,-6499,3170,116457,1
38.123268604278564,-217,3412,-272,114218,1
38.16298961639404,10341,11207,-1623,110732,1
38.201967000961304,1166,1064,-3318,117188,1
38.24198603630066,-1766,-10506,4347,110483,1
38.28200340270996,-11802,-1975,2211,110293,1
38.322492599487305,-1784,-7460,3569,112951,1
38.361982583999634,-1749,-2540,-368,115225,1
38.40214228630066,1579,2270,893,115458,1
38.44221758842468,-1238,10962,-7079,115620,1
38.48197364807129,3258,8456,-5339,116128,1
38.52204155921936,876,343,-1835,118177,1
38.561960220336914,43,-10005,5399,115765,1
38.602012634277344,-7986,-8423,9277,115376,1
38.64095139503479,-8543,474,259,115000,1
38.680960178375244,3195,-7819,-934,114866,1
38.72097206115723,1919,-3789,2140,114477,1
38.76097321510315,3444,-1834,818,114385,1
38.80151081085205,1786,3771,565,115129,1
38.84096717834473,2956,7832,-3195,116045,1
38.88101768493652,-3036,8847,-4962,117412,1
38.92096424102783,1969,-1463,1352,118550,1
38.96098494529724,1782,-10426,6323,119177,1
39.00103282928467,-7360,-3738,6634,118328,1
39.04097366333008,-2060,-2122,700,116714,1
39.07997179031372,2474,-3523,5351,117478,1
39.12028932571411,307,-2057,252,117837,1
39.16086268424988,1861,1436,2074,118013,1
39.20016312599182,-2707,7282,-1205,117862,1
39.24022078514099,-689,5430,-2649,117930,1
39.28021812438965,1249,759,917,119196,1
39.32018852233887,-479,-4495,3301,120128,1
39.36067724227905,-783,-4992,5301,116701,1
39.39999341964722,-3417,131,2831,116009,1
39.440190076828,1633,-1680,1234,118983,1
39.47999453544617,134,-610,1671,116640,1
39.51993918418884,613,-1015,2787,115383,1
39.558985233306885,2153,1084,1768,115256,1
39.5989511013031,871,6437,643,115533,1
39.63896894454956,-687,4535,99,116214,1
39.679075717926025,810,-2028,-242,116074,1
39.71897768974304,1749,-8567,5140,112106,1
39.759044885635376,-7097,-316,4800,109718,1
39.798980712890625,5535,-7772,3103,115545,1
39.83909821510315,740,-168,-166,115812,1
39.878952503204346,3258,4551,2376,116398,1
39.91899251937866,-2234,8649,-4106,116362,1
39.95935559272766,-658,4784,-3783,115990,1
39.99810576438904,560,558,840,115646,1
40.03825759887695,1279,-6897,2865,115431,1
40.07800769805908,-352,-7920,6968,114782,1
40.11813044548035,-6293,702,3773,114411,1
40.1585476398468,3149,-5756,4775,114736,1
40.19796848297119,141,-2179,-1603,114943,1
40.23797130584717,3342,3105,1675,114373,1
40.27803587913513,237,7715,-910,114408,1
40.31800317764282,-694,5826,-851,114997,1
40.35817337036133,612,-768,-753,115709,1
40.39823317527771,2233,-9622,3817,115687,1
40.43710231781006,-4465,-1859,6029,115311,1
40.477084159851074,-394,-3467,4922,115262,1
40.517127990722656,946,-4716,1394,115552,1
40.55738854408264,2059,910,1591,115161,1
40.59722065925598,2068,7605,-295,115445,1
40.637014865875244,-1420,6831,-2598,115559,1
40.677486419677734,-914,2308,-1333,115754,1
40.71701502799988,1272,-5371,994,115908,1
40.75732398033142,1223,-8293,6679,115383,1
40.797160625457764,-7067,1724,5458,115663,1
40.837159872055054,2435,-5365,2940,116329,1
40.875985622406006,896,-810,-169,115759,1
40.915939807891846,933,5394,62,115890,1
40.95612382888794,-1510,6255,-1535,116234,1
40.99611043930054,362,-554,179,116659,1
41.03617310523987,1903,-8735,3488,113619,1
41.076122522354126,-7574,593,7775,103474,1
41.116079807281494,1109,-6619,3898,114165,1
41.15599274635315,499,-3827,-115,116447,1
41.19607090950012,1670,209,3175,116326,1
41.236165046691895,2264,4036,1502,116619,1
41.27617526054382,2481,6372,-949,116665,1
41.315037965774536,1248,4284,-2765,116771,1
41.35497331619263,262,1991,-630,117439,1
41.395002603530884,1524,-4627,2344,118060,1
41.435006856918335,1405,-8700,5967,117660,1
41.47518014907837,-7595,1226,2326,117968,1
41.51516580581665,627,-4580,4933,117118,1
41.554983139038086,-10,-3989,1218,117351,1
41.59497928619385,977,222,-270,116967,1
41.635260343551636,3163,6434,1008,116561,1
41.675132274627686,1182,6919,-1244,116686,1
41.715001821517944,1628,1400,-772,117110,1
41.755160093307495,888,-4543,180,117881,1
41.79403805732727,460,-8152,4260,117862,1
41.83417463302612,-7192,1596,4628,115128,1
41.87407422065735,178,-3672,7095,115906,1
41.91413903236389,-1392,-4343,-128,117589,1
41.95407271385193,-218,-1284,-57,117334,1
41.99396753311157,3936,3923,1351,117164,1
42.0341522693634,2444,6429,-21,117113,1
42.07397794723511,770,4114,338,117351,1
42.11399245262146,597,-513,-405,117629,1
42.153992891311646,857,-7161,1665,117674,1
42.194448471069336,-3530,-5225,7446,113995,1
42.23316287994385,-3983,-1672,5169,115777,1
42.2731831073761,2179,-6185,917,115242,1
42.31308317184448,1083,-972,1213,116332,1
42.35302996635437,1620,3909,1975,116702,1
42.39318323135376,2746,7029,-1064,116906,1
42.43316721916199,1095,4817,-3188,117355,1
42.47315955162048,505,1286,-960,117963,1
42.51301097869873,1689,-4452,2709,118660,1
42.553107500076294,-1342,-8702,4116,118157,1
42.59352970123291,-6326,1289,6213,118344,1
42.6331787109375,-746,-3948,3014,117664,1
42.673022985458374,-298,-3354,1216,116910,1
42.71216654777527,445,-2287,-165,117287,1
42.752044677734375,1790,360,1736,117729,1
42.792638540267944,2833,5510,1672,117705,1
42.83279037475586,92,6145,882,117910,1
42.872167348861694,-426,2835,-1801,118328,1
42.91212582588196,2540,-6030,61,118547,1
42.952181816101074,-700,-10313,6440,105447,1
42.99227261543274,-6916,1525,5405,108811,1
43.03243589401245,1671,-7399,3699,111761,1
43.07219886779785,1154,-3308,-2051,115059,1
43.11216497421265,2096,366,1572,114968,1
43.15102815628052,2554,5122,2495,114988,1
43.19121313095093,540,6810,1729,115076,1
43.23101806640625,1680,2060,116,116000,1
43.2710280418396,1915,-4770,1147,116663,1
43.31100511550903,-1842,-9214,5674,116203,1
43.35103225708008,-6476,265,4064,115424,1
43.39155721664429,1636,-5380,4049,113359,1
43.43100929260254,743,-3045,-1861,114672,1
43.47099709510803,3124,1918,199,115289,1
43.511462688446045,2668,6432,572,116252,1
43.551164627075195,-1108,5184,1659,117377,1
43.61969518661499,2689,-2774,323,117637,1
43.636807441711426,-656,-7475,2348,117475,1
43.67008423805237,-4868,-1400,6349,115731,1
43.70999884605408,80,-3486,5454,114996,1
43.750946044921875,557,-3534,-881,112367,1
43.790074825286865,1400,1247,787,115503,1
43.8299925327301,1743,6914,820,117023,1
43.87011528015137,504,4973,691,117242,1
43.91002011299133,2148,-904,1059,114824,1
43.950040340423584,-170,-7208,2676,111065,1
43.99004149436951,-5109,-828,5588,47246,1
44.03015756607056,253,-3100,4971,54541,1
44.068994760513306,740,-2470,-672,53354,1
44.108970165252686,595,-106,705,68473,1
44.149168491363525,1297,3083,1117,90251,1
44.189215660095215,2068,6450,909,105624,1
44.229302167892456,982,3198,1177,114235,1
44.26898241043091,2161,-3101,1456,114379,1
44.309006452560425,-943,-5499,3424,109262,1
44.3489990234375,-4696,-460,4119,107888,1
44.389012813568115,-726,-2377,4013,110412,1
44.428996324539185,318,-2633,94,111672,1
44.46906065940857,771,-183,911,113719,1
44.50839948654175,864,3046,1414,113362,1
44.54801845550537,2947,5077,288,112759,1
44.58821082115173,362,3028,1002,115088,1
44.628029346466064,1889,-2632,1505,112541,1
44.66803812980652,-656,-5373,2814,111231,1
44.708030700683594,-4727,-971,2903,107834,1
44.74806070327759,-1057,-1444,6087,107033,1
44.788044929504395,-891,-3248,1852,110148,1
44.82806348800659,275,-2185,509,113674,1
44.86800193786621,171,802,1736,116207,1
44.90814208984375,2041,3589,1076,115860,1
44.94712829589844,1961,3490,508,116236,1
44.9870867729187,2039,2415,491,115881,1
45.027013540267944,1399,-1779,1067,114341,1
45.067108392715454,9,-5476,2436,113323,1
45.107048988342285,-4246,-1658,1337,111325,1
45.14703369140625,-3505,-497,5043,106699,1
45.1876277923584,-1276,-2017,4467,109008,1
45.227566719055176,-369,-2848,808,110313,1
45.26721549034119,675,-682,1761,112869,1
45.30704212188721,627,1165,2007,114392,1
45.347018241882324,1079,1757,2192,114722,1
45.38615441322327,965,1620,1989,114063,1
45.426000356674194,181,906,524,113082,1
45.466076612472534,-47,-63,532,113322,1
45.506147146224976,-2068,-727,561,114287,1
45.54616594314575,-2214,-627,1797,114649,1
45.5860493183136,-1137,-243,1736,115348,1
45.62616229057312,-224,65,2513,116673,1
45.667389154434204,1025,2816,1896,116973,1
45.70615077018738,2131,5162,5,118161,1
45.74616003036499,-33,-1312,897,116959,1
45.786163330078125,-423,-7931,3115,112498,1
45.82534050941467,-6716,-460,3786,98691,1
45.865123987197876,-1069,-4143,5196,107258,1
45.905572175979614,869,-4230,676,112034,1
45.94511389732361,2270,4424,-497,113648,1
45.985034704208374,-1036,8845,-339,116747,1
46.025819063186646,1743,-243,-213,117242,1
46.06512904167175,-46,-9289,3782,109631,1
46.10508465766907,-6655,52,6053,105277,1
46.145145893096924,1288,-5964,5162,109125,1
46.18511652946472,1388,-3883,-1397,112810,1
46.22510290145874,1319,1917,2752,114439,1
46.2641658782959,-479,7284,-136,111466,1
46.304128885269165,864,5326,-2044,105828,1
46.34413766860962,1580,1278,-1549,111476,1
46.3841278553009,2149,-3599,4234,112500,1
46.424392223358154,-1819,-6500,6267,108838,1
46.46414804458618,-5442,1033,2340,101894,1
46.50411796569824,433,-3620,4618,106085,1
46.54401898384094,-442,-3366,337,103907,1
46.584033250808716,1385,-2015,610,107034,1
46.624040842056274,934,1599,1220,111055,1
46.66398596763611,2519,4586,925,109128,1
46.70329689979553,1053,5322,-1248,107300,1
46.743117332458496,1708,2187,-1850,110344,1
46.783159017562866,1991,-3951,1385,113986,1
46.823134899139404,-364,-7390,5846,108514,1
46.86307072639465,-6113,1566,5270,105441,1
46.90315556526184,-484,-3370,4853,101681,1
46.943132400512695,-1097,-2963,384,103760,1
46.98309350013733,659,-1083,2177,109660,1
47.02310371398926,565,2297,1816,110663,1
47.063109159469604,2045,5227,222,104385,1
47.10315728187561,2336,4019,-2454,101478,1
47.1431097984314,1697,-494,-1042,106633,1
47.182178258895874,2165,-8632,3785,107046,1
47.222312927246094,-5660,-2998,4040,101619,1
47.26227831840515,-4105,-218,4182,100272,1
47.302136182785034,220,-2475,5087,101085,1
47.342127561569214,-792,-2655,1255,102840,1
47.38211178779602,942,-1922,2307,106745,1
47.42218279838562,142,67,2851,109243,1
47.46221423149109,272,1469,1495,109791,1
47.50214600563049,1123,3607,-392,110792,1
47.5421359539032,1633,4870,-1943,110699,1
47.58212661743164,608,2119,-1911,112644,1
47.62124252319336,2795,-7032,3642,109993,1
47.661136865615845,-3778,-6270,6508,107767,1
47.701119899749756,-6669,2443,2885,109024,1
47.74113202095032,6249,-1400,5535,103401,1
47.781090259552,264,-736,75,108154,1
47.821229696273804,-644,206,3184,108550,1
47.861223220825195,-918,-2,2204,107414,1
47.90113854408264,-489,-274,1119,106546,1
47.94112586975098,-512,-297,1481,106268,1
47.98114538192749,-1044,106,1682,106613,1
48.02111506462097,-599,-245,1927,105490,1
48.06022024154663,-985,-378,2326,104385,1
48.10013794898987,-995,-1118,2529,104580,1
48.14015817642212,-1115,-2591,2528,105459,1
48.180118560791016,264,-3153,2553,107390,1
48.22020959854126,299,-1576,2725,110450,1
48.26038193702698,1400,419,2443,111961,1
48.300100326538086,720,7159,304,112941,1
48.34013772010803,2039,7078,-4147,112820,1
48.380159854888916,-81,3551,-3330,117282,1
48.42014741897583,1398,-6924,3575,111929,1
48.4601674079895,-4530,-9692,10436,109489,1
48.499125719070435,-4601,-4483,5851,111697,1
48.539194107055664,4038,-2651,421,111588,1
48.57912731170654,2202,11532,-2193,113404,1
48.61910009384155,3745,4724,-3659,118087,1
48.65912938117981,477,-6513,1621,118132,1
48.69916081428528,-4605,-7242,8453,106017,1
48.73915457725525,-5138,-2579,5034,107292,1
48.77908992767334,3346,-6342,372,105776,1
48.81911063194275,2830,5868,1746,105336,1
48.85917019844055,1610,10741,-3637,96638,1
48.89967393875122,3939,1942,-4447,104282,1
48.93812155723572,198,-9934,4762,104700,1
48.978166818618774,-9086,-4792,11002,100867,1
49.018123388290405,-309,-9555,3905,100753,1
49.058114528656006,2450,-643,-254,106224,1
49.0981285572052,4017,11749,-2346,94415,1
49.13811802864075,1940,3740,-4286,97794,1
49.1781005859375,471,-4336,3307,100228,1
49.218172550201416,-2348,-7140,6180,92523,1
49.258161783218384,-7988,347,4667,89594,1
49.29812169075012,2776,-7660,1913,96404,1
49.33812165260315,1384,-317,673,107741,1
49.37812304496765,5372,6647,59,106812,1
49.41718888282776,1259,6654,-741,109297,1
49.45710873603821,813,-1136,155,108414,1
49.49712324142456,-398,-7920,2411,104799,1
49.537134647369385,-7477,-1341,5868,93610,1
49.57711052894592,-774,-6033,4246,94730,1
49.61711645126343,1064,-3545,303,99468,1
49.6571090221405,3016,4818,1572,95264,1
49.69710326194763,3743,8341,-1700,89632,1
49.73708701133728,2061,2266,324,94051,1
49.7771110534668,945,-7930,2692,93880,1
49.817126750946045,-7102,-5612,4601,82823,1
49.85612225532532,-4493,-2896,5194,80281,1
49.896130084991455,2422,-5182,1294,68180,1
49.93649172782898,2522,2768,461,74813,1
49.97610592842102,5295,7033,-1093,77693,1
50.01611614227295,-1186,3117,-534,82791,1
50.05614876747131,1672,-10304,1706,81600,1
50.09612011909485,-9610,-2198,4914,80900,1
50.13610315322876,465,-8039,8068,86193,1
50.17612147331238,1011,-3576,-583,95909,1
50.21611666679382,2652,5784,2096,89913,1
50.25613355636597,2844,6938,-3324,88579,1
50.29655933380127,65,3399,-1765,93395,1
50.33512544631958,1489,-7529,2954,96380,1
50.37514019012451,-5200,-5036,7027,91991,1
50.4151177406311,-5381,-1585,3241,83402,1
50.45524621009827,1738,-4633,1942,75297,1
50.49521732330322,673,-1759,1501,89599,1
50.5351345539093,1450,2042,1954,104208,1
50.57511830329895,2599,6487,710,105968,1
50.61519742012024,1199,5404,-2439,109927,1
50.65511631965637,1306,2286,-1147,111596,1
50.695170164108276,1384,-6250,2065,108959,1
50.7353515625,-1970,-8129,6251,101047,1
50.77410292625427,-8450,1456,2127,101176,1
50.814148902893066,1474,-4849,6078,101082,1
50.85411071777344,-8,-3721,-300,104188,1
50.89438843727112,922,-663,1742,108737,1
50.934134006500244,3249,4193,1280,105080,1
50.97413206100464,2719,7742,-948,104259,1
51.01414728164673,1605,1622,-1501,107245,1
51.05410885810852,1301,-7047,552,105310,1
51.09442067146301,-3597,-6695,7228,83949,1
51.134119510650635,-6032,449,5231,87675,1
51.17410492897034,1903,-4941,3178,78370,1
51.21314096450806,-293,-2532,-662,81620,1
51.25310564041138,2664,1583,1404,80559,1
51.294060468673706,2994,7060,-965,78314,1
51.333134174346924,2239,3724,139,79717,1
51.37344431877136,530,-2683,792,82098,1
51.41310262680054,-526,-8370,4829,78055,1
51.453169107437134,-7460,518,4454,75644,1
51.493287563323975,866,-5709,5336,70802,1
51.53323674201965,459,-3474,-749,75801,1
51.57306909561157,982,1437,2107,84210,1
51.613101959228516,1940,6051,277,82841,1
51.65382194519043,1474,5092,-1068,76884,1
51.692134618759155,2325,1013,-1004,77238,1
51.7321093082428,526,-5328,1361,78869,1
51.772296667099,-2414,-5845,6333,71169,1
51.8121063709259,-6619,296,2917,66242,1
51.8522469997406,523,-4776,3984,70276,1
51.89208674430847,414,-3048,525,84112,1
51.93224000930786,2152,985,2202,95867,1
51.9722740650177,2984,6164,1491,97154,1
52.01223373413086,3385,5911,561,90420,1
52.052172899246216,1405,308,-919,91668,1
52.09211468696594,1280,-8025,1569,93988,1
52.1311559677124,-5218,-5285,4204,75304,1
52.171138048172,-5250,-267,6135,74977,1
52.211190700531006,1448,-5241,2692,68248,1
52.25120711326599,-7,-1861,-890,76927,1
52.291179895401,3426,4598,1587,79223,1
52.33125972747803,2385,5564,245,81159,1
52.37124967575073,-152,2674,989,76759,1
52.41115355491638,1288,-5293,314,80119,1
52.45117712020874,-3153,-5094,5506,69369,1
52.49116802215576,-5224,-575,5194,77184,1
52.5316698551178,1645,-5027,2136,82925,1
52.57068347930908,534,-928,763,92902,1
52.6101655960083,2124,3924,1712,96479,1
52.65027403831482,1536,7311,-977,95515,1
52.690260887145996,1670,3240,-2303,93759,1
52.73064184188843,1252,-4372,-123,95361,1
52.77021312713623,-361,-8167,6103,85816,1
52.81018352508545,-8074,715,4640,79399,1
52.850202560424805,2645,-6551,4604,83939,1
52.89017105102539,-878,-185,188,93575,1
52.93054509162903,6470,8548,-1514,92847,1
52.970255613327026,390,5912,-2375,101827,1
53.00923180580139,583,-4958,923,99104,1
53.04919505119324,-2237,-9665,5447,78332,1
53.08918571472168,-10053,602,5301,85510,1
53.12927865982056,4480,-8644,1702,89411,1
53.169158935546875,1046,522,1949,98340,1
53.20914912223816,3654,10038,87,90264,1
53.24929428100586,4311,7801,-1187,91694,1
53.28917837142944,-43,539,-129,92447,1
53.32935690879822,1210,-10075,3520,87814,1
53.369170904159546,-9407,-5242,4247,74677,1
53.409178495407104,2018,-8991,6670,68827,1
53.449214696884155,1255,-2432,-2199,76043,1
53.488260984420776,3544,7928,2342,74872,1
53.52866983413696,2642,9164,-2050,74106,1
53.56816077232361,1610,4263,-13,73941,1
53.608301401138306,1042,-8051,1653,79563,1
53.648186445236206,-8030,-7181,7590,81703,1
53.68833088874817,-1901,-6279,4130,92741,1
53.72877073287964,1571,-2945,-1708,98341,1
53.76817202568054,3407,7438,1202,84683,1
53.85580539703369,3230,10058,-160,82169,1
53.85657095909119,1336,3387,2487,81416,1
53.88819336891174,1782,-5121,1597,77633,1
53.92768216133118,-2930,-10825,3863,59652,1
53.967257261276245,-9933,1851,5034,68497,1
54.00724649429321,3781,-9080,1528,51616,1
54.04723262786865,2384,986,-1714,65272,1
54.08723163604736,2721,9754,1561,74719,1
54.1273992061615,2297,8358,1155,71531,1
54.1671781539917,2968,-2785,1445,70966,1
54.207202196121216,-1091,-11071,2994,70156,1
54.24722409248352,-9787,212,5938,54379,1
54.28729224205017,763,-9384,3321,33213,1
54.327229022979736,3919,554,-2456,36982,1
54.36620259284973,2333,11455,-25,56954,1
54.40618968009949,1236,5468,1538,58094,1
54.44619083404541,1311,-7495,2328,56383,1
54.48625707626343,-8039,-6972,5320,49900,1
54.526233434677124,-4063,-5640,5280,47172,1
54.56621193885803,3436,-4015,-2370,34306,1
54.60623478889465,1201,8876,-948,45223,1
54.64617156982422,4070,8073,403,43498,1
54.68620252609253,3492,-2210,1705,50191,1
54.7262179851532,-2092,-11177,5457,49391,1
54.76628279685974,-10794,429,5806,60977,1
54.806243658065796,3529,-9157,620,34510,1
54.84523105621338,3504,3793,-1921,39350,1
54.88522672653198,3266,8495,-2285,48455,1
54.92528247833252,2164,3137,1367,57449,1
54.96522498130798,852,-8030,3429,49521,1
55.00527811050415,-6132,-5836,4744,57747,1
55.04520010948181,-4011,-3658,3876,50895,1
55.08528757095337,2920,-5489,-1553,27662,1
55.12515664100647,2586,2176,-257,42300,1
55.16523599624634,3067,6669,3124,50740,1
55.20512771606445,571,6165,4669,52314,1
55.24519181251526,1540,300,2021,44290,1
55.28417229652405,525,-8256,34,55781,1
55.324217796325684,-6069,-4470,3505,55570,1
55.364201068878174,-3438,-2095,5014,59708,1
55.40424108505249,339,-5448,-329,53254,1
55.44424748420715,1068,-2024,5,72023,1
55.48416328430176,2327,4996,986,75750,1
55.52420949935913,2553,8168,-148,76253,1
55.56431555747986,1253,5025,917,72140,1
55.60438060760498,1641,-3068,-231,70973,1
55.64416217803955,440,-9657,4695,68170,1
55.684218645095825,-8474,-767,2903,58673,1
55.72318172454834,-696,-4254,5797,61401,1
55.76324796676636,-255,-4460,170,49113,1
55.80323600769043,1506,-1440,213,52916,1
55.843164920806885,2159,4673,1686,61014,1
55.883183002471924,2067,6680,813,61020,1
55.92314291000366,687,4457,1054,52252,1
55.963364362716675,1495,-933,-374,41528,1
56.00341272354126,399,-5184,1964,48702,1
56.04331874847412,-2299,-5804,3594,34451,1
56.083213090896606,-8793,1150,3519,43154,1
56.12343668937683,-573,-4997,6244,49250,1
56.162314891815186,474,-3985,-559,35428,1
56.202322006225586,2162,-1032,487,50295,1
56.2421760559082,1731,1247,2045,63736,1
56.282235860824585,2450,3603,1403,55417,1
56.32224106788635,1559,3772,-742,45657,1
56.36230516433716,1024,2923,-1987,43907,1
56.40223002433777,743,-2030,-391,43756,1
56.442288875579834,-1462,-7121,2555,35318,1
56.482234477996826,-8692,-1999,5274,40263,1
56.52224040031433,-1948,-3931,3442,43200,1
56.56223225593567,1905,130,-122,37180,1
56.6012396812439,173,9180,-1243,40660,1
56.641242265701294,2114,2098,2582,46614,1
56.68119740486145,625,-5341,3402,37131,1
56.721229791641235,-4353,-4735,1097,33659,1
56.76124334335327,-5118,-2588,4838,58280,1
56.801225900650024,2031,-6573,2752,49661,1
56.841222286224365,1267,1005,-952,51935,1
56.88112831115723,676,9796,141,53486,1
56.921276807785034,1577,5604,-440,45249,1
56.96133637428284,1940,-1984,1111,45204,1
57.00120234489441,721,-10095,3017,52685,1
57.04020166397095,-8241,-406,5946,49355,1
57.08027267456055,575,-6587,3626,30209,1
57.12016582489014,1334,-2168,-43,33768,1
57.16038727760315,1482,5604,-67,34276,1
57.20022177696228,-1182,7718,-1947,38435,1
57.24015951156616,736,2390,483,43090,1
57.280193567276,1491,-5946,2397,49388,1
57.320229053497314,-1950,-5022,6485,54242,1
57.36020112037659,-5033,-312,4370,60004,1
57.400190114974976,1492,-4592,2043,74007,1
57.44018340110779,451,-2055,414,98079,1
57.47920513153076,977,182,2142,103991,1
57.51929569244385,292,986,1832,106399,1
57.559218406677246,283,1666,2053,107528,1
57.599220752716064,-129,2028,741,106325,1
57.6396369934082,-927,3282,-121,99045,1
57.67923045158386,-1832,3790,-1251,98844,1
57.71915650367737,-86,3817,-1045,99838,1
57.759164810180664,773,2805,-794,98426,1
57.799193143844604,1590,-2725,2111,92914,1
57.83938026428223,1418,-11192,4726,88281,1
57.879162073135376,-7496,-355,3034,92778,1
57.91834759712219,-2133,-1871,2747,100039,1
57.958213090896606,2114,-2230,3679,104198,1
57.99829435348511,-397,-2442,1325,107511,1
58.038174867630005,-65,-2571,1680,108821,1
58.07824230194092,-880,-1844,2058,110844,1
58.11816692352295,420,-633,1635,113853,1
58.15818929672241,1089,1580,1892,115058,1
58.19843888282776,560,5152,-374,113274,1
58.23817825317383,832,7434,-2050,111834,1
58.27824640274048,1891,2006,-1648,110509,1
58.31816005706787,-441,-4328,1566,104462,1
58.35717725753784,-1321,-11237,5291,91203,1
58.39729595184326,-8537,1401,4755,88195,1
58.43716263771057,2879,-7125,3260,79109,1
58.477169036865234,395,-487,1657,82354,1
58.517192363739014,819,7144,588,68360,1
58.55716323852539,1659,5111,-601,69169,1
58.59826159477234,1050,-588,1291,78830,1
58.63718271255493,-238,-8579,2614,69812,1
58.677316427230835,-7455,-2527,5987,65457,1
58.71753716468811,189,-6841,3118,64453,1
58.75720930099487,1841,-2226,721,78276,1
58.79699349403381,1168,3741,2240,70622,1
58.83622360229492,3408,7875,-205,46790,1
58.87618017196655,2574,4298,-2042,44304,1
58.91619563102722,1199,-2078,-578,54506,1
58.956244707107544,2012,-10583,4973,62286,1
58.99625205993652,-8621,-1737,3792,56582,1
59.036370038986206,-3191,-3465,3476,75727,1
59.07623887062073,2222,-4653,3540,78609,1
59.11617469787598,-58,-866,340,88638,1
59.15617394447327,2177,1975,2489,89840,1
59.196279525756836,-1331,6321,-291,83333,1
59.235191822052,-49,6539,-1562,76967,1
59.27522277832031,2393,1637,-1429,91300,1
59.31517672538757,714,-3952,1924,89283,1
59.355228424072266,2049,-11003,6277,77833,1
59.39517259597778,-10432,949,476,72851,1
59.435208559036255,721,-1358,4851,76536,1
59.47527718544006,3488,-751,2068,69558,1
59.5151641368866,61,-538,301,77069,1
59.55516815185547,-279,-337,3020,82276,1
59.59516978263855,-1278,-220,2128,82250,1
59.63522410392761,-1267,-735,1560,82311,1
59.6758713722229,-1227,-543,2116,81799,1
59.71430778503418,-2002,-362,1559,82962,1
59.754172563552856,-1686,-507,1587,85894,1
59.794196128845215,-1376,-317,1886,87269,1
59.83426594734192,-958,-309,1909,88777,1
59.874218463897705,-537,-351,1986,89135,1
59.914201498031616,-56,-150,1910,90228,1
59.954219341278076,34,-123,1962,92212,1
59.99425292015076,-125,-116,1917,93215,1
60.03420543670654,-199,-144,1823,92597,2
60.07419538497925,-443,-175,1599,92230,2
60.11421537399292,-597,-216,1738,91995,2
60.15317749977112,-854,-152,1881,90746,2
60.19343423843384,-841,-191,1939,88987,2
60.23318910598755,-800,-212,1928,87959,2
60.27326965332031,-666,-275,1889,87952,2
60.31317901611328,-442,-234,1831,88591,2
60.353193044662476,-289,-313,1719,89010,2
60.39318609237671,-289,-318,1500,89491,2
60.43319654464722,-172,-496,1416,89632,2
60.47319030761719,-277,-654,1013,89258,2
60.51345109939575,-313,-793,749,89006,2
60.553181886672974,-407,-999,607,89858,2
60.592233419418335,-228,-1211,803,89442,2
60.632291078567505,-506,-1405,523,90363,2
60.67215657234192,-629,-1722,527,91242,2
60.71221566200256,-901,-2010,811,91467,2
60.75215792655945,-992,-2386,976,91354,2
60.792200326919556,-854,-2840,1352,90790,2
60.83235168457031,-1057,-3321,1618,89964,2
60.87218999862671,-1396,-3615,1483,88891,2
60.91221022605896,-1933,-3033,1605,88629,2
60.95220875740051,-1862,-2553,1847,88386,2
60.99224281311035,-1717,-2001,1971,88497,2
61.03121590614319,-1427,-1727,1685,88626,2
61.07121706008911,-1202,-1746,1548,89591,2
61.111204624176025,-1054,-1697,1643,89166,2
61.15122842788696,-1059,-1793,1464,87274,2
61.19115471839905,-884,-2085,955,86042,2
61.2318000793457,-632,-2169,495,86185,2
61.271170139312744,-340,-2267,251,85995,2
61.31118869781494,-204,-2170,-41,86048,2
61.35120224952698,-116,-2102,-151,86173,2
61.39117503166199,28,-2070,-146,86256,2
61.4313268661499,-110,-1966,-142,86664,2
61.470277547836304,-212,-1938,73,86877,2
61.51019096374512,-267,-1954,285,86774,2
61.55026698112488,-450,-1927,304,86598,2
61.59020662307739,-526,-1888,419,87137,2
61.63083529472351,-573,-1892,522,87705,2
61.67018485069275,-498,-1933,499,87821,2
61.710246086120605,-635,-1942,571,87812,2
61.750239610672,-621,-1996,598,87807,2
61.79019570350647,-759,-1904,590,88060,2
61.830533266067505,-649,-1954,625,87661,2
61.870206117630005,-655,-1975,570,87294,2
61.909231662750244,-693,-1956,543,87491,2
61.94927144050598,-608,-1954,574,87153,2
61.9892315864563,-545,-1951,463,87087,2
62.02923274040222,-574,-1929,496,87239,2
62.06986379623413,-460,-1925,467,87353,2
62.109217166900635,-376,-1991,450,87384,2
62.14923453330994,-546,-1930,387,87367,2
62.18919515609741,-718,-1910,433,87430,2
62.229249715805054,-537,-1985,342,88138,2
62.2691867351532,-417,-1922,114,88628,2
62.30918025970459,-539,-1980,316,89570,2
62.348196268081665,-653,-1792,404,90438,2
62.3883261680603,-514,-1936,184,91896,2
62.428237199783325,-530,-1913,162,94355,2
62.4683518409729,-532,-1854,454,97183,2
62.50823354721069,-486,-1834,455,99472,2
62.548216342926025,-375,-1938,378,101488,2
62.58824396133423,-419,-1922,340,103191,2
62.62822413444519,-363,-1896,288,104158,2
62.6683931350708,-510,-2019,358,104597,2
62.70828890800476,-546,-2055,285,104782,2
62.748247146606445,-623,-1974,169,105051,2
62.78819417953491,-543,-1965,131,105101,2
62.827184438705444,-534,-1987,181,105156,2
62.867197036743164,-495,-2029,186,104803,2
62.907198667526245,-572,-2084,70,104758,2
62.94725775718689,-519,-1995,193,104930,2
62.98719644546509,-524,-1920,217,104917,2
63.02734708786011,-459,-2028,263,104911,2
63.06719350814819,-575,-1938,199,104925,2
63.10720896720886,-432,-1976,237,104975,2
63.14719200134277,-494,-1964,147,105081,2
63.187209606170654,-499,-1992,140,105019,2
63.22758221626282,-423,-1961,162,104904,2
63.26662874221802,-428,-2046,77,104846,2
63.30620884895325,-478,-2055,150,104778,2
63.346216440200806,-483,-2061,141,104731,2
63.38625764846802,-530,-2088,230,104719,2
63.42623329162598,-663,-2025,272,104646,2
63.466264724731445,-649,-2034,485,104346,2
63.50621581077576,-661,-1989,377,104391,2
63.5462121963501,-507,-2056,397,104132,2
63.58622360229492,-348,-2129,259,103696,2
63.626203775405884,-550,-2242,-22,103721,2
63.66679883003235,-820,-2091,-3,103943,2
63.70578908920288,-999,-1986,213,104049,2
63.745213985443115,-945,-2008,168,104072,2
63.78521132469177,-754,-2076,92,104022,2
63.82522702217102,-756,-1936,173,103955,2
63.86599135398865,-754,-1838,237,103909,2
63.967801332473755,-780,-1809,242,103874,2
63.96975660324097,-770,-1762,257,103699,2
63.987356662750244,-720,-1755,261,103394,2
64.02523732185364,-681,-1804,287,103089,2
64.065260887146,-643,-1866,338,102871,2
64.10527896881104,-640,-1846,265,102760,2
64.14524388313293,-645,-1826,307,102201,2
64.1842360496521,-575,-1867,441,101958,2
64.22422242164612,-551,-1773,380,101828,2
64.2651515007019,-583,-1811,320,101539,2
64.30432534217834,-627,-1800,361,101350,2
64.34428429603577,-702,-1836,368,101287,2
64.38425970077515,-776,-1798,373,101063,2
64.42421793937683,-834,-1862,382,100628,2
64.46442341804504,-861,-1911,436,100279,2
64.504891872406,-947,-1867,438,100108,2
64.54421401023865,-969,-1880,502,99878,2
64.58425402641296,-942,-1879,503,99822,2
64.62324476242065,-1017,-1777,504,99693,2
64.6633369922638,-1064,-1780,515,99401,2
64.70325040817261,-974,-1807,477,99338,2
64.74329137802124,-881,-1900,374,99248,2
64.78323197364807,-799,-1933,368,99026,2
64.82321834564209,-702,-1916,424,98846,2
64.86321878433228,-628,-1895,415,98972,2
64.90324783325195,-562,-1868,366,98979,2
64.9432384967804,-552,-1851,406,98926,2
64.9832022190094,-563,-1858,411,98664,2
65.02321934700012,-675,-1859,410,98540,2
65.06221890449524,-710,-1825,397,98541,2
65.10222053527832,-728,-1847,394,98593,2
65.1422119140625,-770,-1836,414,98546,2
65.18223857879639,-869,-1880,458,98484,2
65.22223138809204,-969,-1864,430,98583,2
65.26222395896912,-1027,-1818,405,98621,2
65.30225324630737,-925,-1827,431,98506,2
65.34226179122925,-840,-1810,371,98498,2
65.38221859931946,-769,-1845,335,98388,2
65.42222952842712,-741,-1850,342,98372,2
65.46221709251404,-704,-1832,347,98338,2
65.50121569633484,-605,-1885,420,98154,2
65.5412232875824,-607,-1855,431,98026,2
65.5812394618988,-671,-1857,438,98083,2
65.6211929321289,-695,-1856,504,98154,2
65.66122484207153,-726,-1856,499,98238,2
65.7012152671814,-736,-1857,477,98338,2
65.74117755889893,-777,-1834,482,98513,2
65.78120827674866,-805,-1826,496,98766,2
65.82119417190552,-837,-1837,451,99134,2
65.86137342453003,-887,-1874,402,99632,2
65.90146589279175,-894,-1854,409,100116,2
65.94025373458862,-904,-1878,405,100687,2
65.98023724555969,-834,-1877,382,101702,2
66.02022886276245,-770,-1858,373,102637,2
66.06023740768433,-795,-1828,444,103459,2
66.10026717185974,-770,-1843,459,104156,2
66.14024233818054,-755,-1858,401,103455,2
66.18026351928711,-618,-1856,348,100531,2
66.22021865844727,-699,-1826,382,96706,2
66.26026558876038,-734,-1853,392,94532,2
66.30031967163086,-796,-1874,451,95710,2
66.34024930000305,-827,-1853,429,98091,2
66.37921833992004,-831,-1871,367,99826,2
66.41928434371948,-838,-1830,418,101216,2
66.45939588546753,-788,-1825,397,102034,2
66.4994592666626,-849,-1849,337,102197,2
66.53923606872559,-815,-1829,385,102261,2
66.57925391197205,-815,-1951,318,102805,2
66.6192774772644,-738,-1921,306,103227,2
66.65925526618958,-741,-1827,415,103361,2
66.69925308227539,-726,-1874,450,104169,2
66.73923563957214,-698,-1889,316,104824,2
66.7793173789978,-709,-1937,298,104724,2
66.81826615333557,-765,-1885,347,104952,2
66.8582592010498,-693,-1894,386,104825,2
66.8984305858612,-740,-1835,490,104705,2
66.93824505805969,-773,-1922,589,104654,2
66.97827196121216,-744,-1877,525,104337,2
67.0182752609253,-702,-1799,365,103743,2
67.05818486213684,-638,-1773,274,103264,2
67.09826827049255,-715,-1812,312,102346,2
67.13831543922424,-884,-1894,412,101642,2
67.17832136154175,-1085,-1911,427,101321,2
67.2182548046112,-1145,-1911,429,101007,2
67.2582676410675,-1042,-1896,416,100715,2
67.29762363433838,-788,-1957,379,100506,2
67.33724784851074,-656,-1906,366,100544,2
67.377286195755,-625,-1859,432,100584,2
67.41729426383972,-697,-1827,439,101012,2
67.4572594165802,-748,-1845,498,101182,2
67.49738430976868,-797,-1832,468,101213,2
67.5372326374054,-660,-1902,310,101166,2
67.57723999023438,-580,-1831,266,101070,2
67.61730074882507,-499,-1844,314,101113,2
67.65731239318848,-434,-1852,271,100943,2
67.69724178314209,-487,-1836,392,100590,2
67.73637342453003,-635,-1807,499,100424,2
67.7763307094574,-704,-1851,487,100605,2
67.81629586219788,-786,-1834,472,100660,2
67.85629105567932,-820,-1839,440,100618,2
67.89628028869629,-872,-1858,463,100973,2
67.93630385398865,-922,-1893,472,101560,2
67.97629117965698,-984,-1917,452,102000,2
68.01631450653076,-1009,-1879,477,102631,2
68.0562789440155,-933,-1891,470,103565,2
68.09623908996582,-840,-1832,464,104053,2
68.13632893562317,-750,-1856,381,104355,2
68.17534399032593,-792,-1851,430,104513,2
68.21524214744568,-857,-1892,355,104443,2
68.25523972511292,-840,-1865,321,105076,2
68.29526209831238,-786,-1878,364,106055,2
68.33527374267578,-790,-1835,406,107291,2
68.37528967857361,-737,-1878,354,108614,2
68.41523241996765,-667,-1967,323,109474,2
68.45595288276672,-634,-1895,310,110426,2
68.49530458450317,-602,-1920,192,111475,2
68.5355110168457,-701,-1824,339,112399,2
68.5752625465393,-736,-1915,252,113129,2
68.61427927017212,-722,-1876,282,114003,2
68.65425753593445,-781,-1824,451,115578,2
68.69426774978638,-811,-1831,497,117288,2
68.7343156337738,-845,-1870,410,118113,2
68.77437949180603,-863,-1803,783,118838,2
68.81425166130066,-1165,-1661,870,119569,2
68.85426640510559,-1227,-1668,958,120233,2
68.8942596912384,-1173,-1735,981,120504,2
68.93467998504639,-1189,-1641,1126,120413,2
68.97427654266357,-1210,-1444,1237,120121,2
69.01438999176025,-1088,-1415,1084,119944,2
69.05333232879639,-1012,-1165,1181,119260,2
69.09326529502869,-978,-939,1397,118857,2
69.13344097137451,-857,-913,1231,118474,2
69.17330598831177,-879,-738,1504,117771,2
69.21329474449158,-958,-759,1404,117452,2
69.25324034690857,-916,-698,1634,117220,2
69.29327344894409,-937,-625,1492,117194,2
69.33329153060913,-902,-616,1675,117046,2
69.37329339981079,-883,-561,1665,116922,2
69.41395497322083,-892,-565,1614,117008,2
69.45327496528625,-1003,-511,1878,116999,2
69.49325680732727,-847,-553,1489,116973,2
69.53645515441895,-918,-545,1811,116873,2
69.57224321365356,-921,-560,1600,117178,2
69.61234712600708,-876,-608,1485,117673,2
69.65229678153992,-907,-665,1524,117740,2
69.6923155784607,-767,-722,1559,117494,2
69.73225831985474,-1055,-831,1632,117213,2
69.77228546142578,-1082,-895,1591,117043,2
69.81239080429077,-990,-919,1590,116914,2
69.85227966308594,-902,-936,1475,116841,2
69.89228129386902,-901,-1014,1517,116732,2
69.97137880325317,-966,-1081,1322,116629,2
69.97219634056091,-886,-1227,1246,116513,2
70.01139211654663,-1097,-1318,1468,116404,2
70.05130410194397,-960,-1350,1486,116363,2
70.09127306938171,-1016,-1434,1179,116358,2
70.1312985420227,-1152,-1372,1252,116393,2
70.17127752304077,-1029,-1450,1114,116435,2
70.21130752563477,-1031,-1439,1060,116422,2
70.25132894515991,-978,-1399,1280,116406,2
70.29131865501404,-925,-1384,1068,116405,2
70.33153176307678,-1008,-1471,1064,116336,2
70.3713390827179,-980,-1450,1095,116291,2
70.41023349761963,-983,-1465,1067,116238,2
70.45033550262451,-968,-1477,1065,116203,2
70.49040484428406,-1000,-1475,1173,116191,2
70.5302631855011,-980,-1508,1092,116187,2
70.5703125,-895,-1524,1032,116138,2
70.61029624938965,-902,-1522,1089,116032,2
70.65028142929077,-841,-1543,1027,115867,2
70.69026303291321,-813,-1595,929,115686,2
70.73033213615417,-801,-1595,946,115579,2
70.77033877372742,-748,-1566,959,115496,2
70.81025958061218,-813,-1525,944,115502,2
70.84926390647888,-843,-1522,965,115495,2
70.8892834186554,-909,-1550,1014,115439,2
70.92948365211487,-909,-1533,965,115400,2
70.96950078010559,-949,-1490,1029,115397,2
71.00930333137512,-955,-1476,1083,115396,2
71.04932045936584,-959,-1520,1002,115414,2
71.08930397033691,-1015,-1529,1001,115431,2
71.12944149971008,-1003,-1520,1038,115412,2
71.1694803237915,-975,-1523,979,115418,2
71.20930337905884,-963,-1529,979,115390,2
71.2492983341217,-960,-1544,974,115381,2
71.289302110672,-932,-1535,976,115408,2
71.3283178806305,-925,-1543,960,115411,2
71.36828589439392,-910,-1555,986,115419,2
71.40826368331909,-888,-1541,927,115421,2
71.4482626914978,-883,-1557,999,115402,2
71.48830389976501,-870,-1558,955,115370,2
71.52830052375793,-904,-1560,939,115334,2
71.56857442855835,-922,-1535,1008,115338,2
71.60824251174927,-890,-1589,923,115355,2
71.64839005470276,-913,-1577,973,115367,2
71.68828821182251,-918,-1545,968,115374,2
71.72826790809631,-906,-1563,926,115419,2
71.76736378669739,-896,-1585,970,115436,2
71.80725622177124,-905,-1589,945,115468,2
71.84730339050293,-897,-1586,905,115488,2
71.88728880882263,-903,-1572,930,115511,2
71.92732810974121,-902,-1580,940,115540,2
71.96740436553955,-895,-1591,947,115521,2
72.00731039047241,-897,-1639,886,115452,2
72.04730463027954,-897,-1587,907,115358,2
72.0873236656189,-910,-1566,954,115341,2
72.12731790542603,-858,-1616,900,115350,2
72.16728138923645,-839,-1629,836,115358,2
72.20628833770752,-873,-1589,918,115349,2
72.24628591537476,-870,-1600,910,115355,2
72.28629851341248,-881,-1621,836,115360,2
72.32632851600647,-903,-1599,890,115368,2
72.3665714263916,-884,-1596,919,115387,2
72.40633010864258,-911,-1615,877,115394,2
72.44639205932617,-895,-1621,889,115380,2
72.48630905151367,-907,-1604,878,115331,2
72.52630305290222,-885,-1656,865,115297,2
72.56638097763062,-899,-1612,886,115243,2
72.60627484321594,-887,-1590,873,115258,2
72.64531779289246,-868,-1632,886,115293,2
72.68527913093567,-866,-1621,878,115334,2
72.72531485557556,-862,-1628,832,115361,2
72.76529288291931,-869,-1614,844,115378,2
72.80533623695374,-881,-1634,844,115399,2
72.84623050689697,-878,-1633,806,115415,2
72.88527989387512,-882,-1621,841,115412,2
72.92527389526367,-887,-1640,833,115372,2
72.96556496620178,-881,-1658,795,115376,2
73.00611639022827,-877,-1621,818,115359,2
73.04536771774292,-886,-1649,838,115390,2
73.0842833518982,-858,-1676,792,115354,2
73.12447810173035,-902,-1605,844,115351,2
73.16476535797119,-903,-1646,834,115380,2
73.2043035030365,-870,-1670,793,115439,2
73.24432611465454,-877,-1685,795,115456,2
73.28430581092834,-882,-1653,829,115452,2
73.32431101799011,-870,-1659,843,115461,2
73.36448264122009,-891,-1615,886,115431,2
73.40437507629395,-900,-1637,828,115423,2
73.44432163238525,-921,-1643,816,115432,2
73.48432564735413,-914,-1625,821,115417,2
73.52431917190552,-895,-1617,805,115451,2
73.56331253051758,-883,-1652,759,115474,2
73.60329151153564,-875,-1708,729,115444,2
73.64332866668701,-911,-1676,756,115444,2
73.68330192565918,-938,-1639,736,115473,2
73.72335910797119,-900,-1649,716,115493,2
73.76327323913574,-843,-1702,655,115501,2
73.80341815948486,-874,-1613,731,115498,2
73.84330677986145,-890,-1631,724,115466,2
73.88333487510681,-884,-1706,779,115461,2
73.92342281341553,-928,-1741,757,115489,2
73.96329641342163,-962,-1726,848,115513,2
74.00232481956482,-994,-1680,898,115558,2
74.04266047477722,-996,-1663,866,115581,2
74.0823917388916,-914,-1695,782,115616,2
74.12230038642883,-796,-1737,687,115576,2
74.1623010635376,-782,-1733,710,115548,2
74.20309019088745,-879,-1730,739,115532,2
74.24306201934814,-958,-1713,724,115540,2
74.28234839439392,-1048,-1653,735,115537,2
74.32230639457703,-987,-1735,721,115535,2
74.37691926956177,-999,-1724,785,115525,2
74.40385246276855,-1038,-1669,815,115545,2
74.44133138656616,-993,-1630,821,115568,2
74.48135113716125,-957,-1624,851,115602,2
74.52134966850281,-929,-1564,769,115636,2
74.5615005493164,-819,-1632,629,115674,2
74.6017050743103,-706,-1639,671,115679,2
74.64142560958862,-695,-1665,737,115693,2
74.68136429786682,-823,-1622,737,115593,2
74.72130012512207,-885,-1617,751,115552,2
74.76133012771606,-968,-1584,774,115533,2
74.8014874458313,-1018,-1602,718,115550,2
74.84132504463196,-1027,-1643,707,115588,2
74.88132834434509,-1027,-1673,717,115619,2
74.9203553199768,-1083,-1544,707,115635,2
74.96033263206482,-1100,-1612,668,115664,2
75.00050711631775,-1063,-1633,715,115678,2
75.04040288925171,-1076,-1672,724,115677,2
75.08039450645447,-1134,-1635,797,115719,2
75.12032413482666,-1191,-1618,823,115695,2
75.16031956672668,-1121,-1643,783,115675,2
75.20031237602234,-1016,-1698,749,115538,2
75.24038028717041,-911,-1698,724,115449,2
75.2803282737732,-906,-1626,746,115448,2
75.32033181190491,-861,-1622,644,115498,2
75.35952806472778,-775,-1713,586,115555,2
75.39931678771973,-776,-1719,620,115561,2
75.43982458114624,-888,-1753,664,115590,2
75.4798755645752,-926,-1737,614,115632,2
75.51932668685913,-881,-1697,664,115645,2
75.55936217308044,-931,-1629,761,115651,2
75.59964418411255,-965,-1658,740,115641,2
75.64005541801453,-1008,-1679,715,115620,2
75.67933511734009,-1085,-1639,682,115615,2
75.71933698654175,-1056,-1677,675,115542,2
75.7593412399292,-1079,-1653,708,115437,2
75.79832029342651,-1097,-1639,747,115368,2
75.83834719657898,-1139,-1614,711,115418,2
75.87834739685059,-1058,-1660,614,115459,2
75.91836643218994,-944,-1704,607,115501,2
75.9583215713501,-928,-1690,595,115503,2
75.99836254119873,-908,-1716,644,115535,2
76.0383837223053,-878,-1719,641,115545,2
76.07835721969604,-842,-1754,638,115526,2
76.11845421791077,-804,-1752,640,115511,2
76.15832161903381,-819,-1707,668,115521,2
76.19833660125732,-837,-1692,684,115523,2
76.23860692977905,-849,-1693,717,115567,2
76.27732610702515,-913,-1724,735,115544,2
76.31731986999512,-907,-1713,754,115508,2
76.35736227035522,-911,-1724,706,115552,2
76.39732670783997,-871,-1707,761,115615,2
76.43735766410828,-893,-1698,752,115701,2
76.47732496261597,-920,-1645,736,115772,2
76.51735472679138,-967,-1652,684,115858,2
76.55735158920288,-978,-1668,677,115897,2
76.59743762016296,-1002,-1670,647,115928,2
76.6374499797821,-996,-1673,623,116015,2
76.67735719680786,-959,-1671,611,116110,2
76.71733903884888,-930,-1711,598,116157,2
76.75633358955383,-960,-1753,558,116249,2
76.79633688926697,-1014,-1773,773,116293,2
76.83713006973267,-1003,-1764,637,116303,2
76.87645936012268,-911,-1688,763,116237,2
76.91632890701294,-1018,-1578,917,116164,2
76.9563856124878,-1193,-1604,992,116175,2
76.99637579917908,-1362,-1571,1194,116154,2
77.03663492202759,-1747,-1421,1479,116105,2
77.07668995857239,-1351,-1483,1382,116021,2
77.1163580417633,-1496,-1211,1611,115961,2
77.15532970428467,-1265,-1075,1589,115930,2
77.19533967971802,-1073,-1013,1654,115909,2
77.23573565483093,-1028,-834,1785,115877,2
77.2753415107727,-817,-655,1409,115901,2
77.31531834602356,-818,-470,1763,116007,2
77.35537719726562,-672,-324,1427,116084,2
77.39530420303345,-609,-199,1495,116018,2
77.43540143966675,-801,-16,1676,116027,2
77.47530961036682,-541,-76,1356,116003,2
77.51543521881104,-795,55,1689,115932,2
77.55536007881165,-668,108,1639,116031,2
77.59534621238708,-786,158,1726,116129,2
77.63438105583191,-862,189,1781,116198,2
77.6743631362915,-732,216,1716,116205,2
77.71442222595215,-822,248,1770,116185,2
77.75448799133301,-796,208,1654,116199,2
77.79433941841125,-763,142,1585,116184,2
77.83441972732544,-502,-65,1232,116114,2
77.87440657615662,-762,-198,1595,116031,2
77.91437697410583,-1047,-362,1533,115916,2
77.95455193519592,-1145,-418,2000,115898,2
77.99438691139221,-891,-652,1574,115956,2
78.03443551063538,-990,-718,1480,115999,2
78.0735650062561,-1135,-904,1611,116014,2
78.11337566375732,-1140,-987,1503,116003,2
78.15337419509888,-1072,-1152,1232,115986,2
78.19338703155518,-1101,-1304,1327,115979,2
78.23339557647705,-1255,-1355,1311,115984,2
78.27340412139893,-1108,-1518,1078,116057,2
78.31340456008911,-1068,-1586,959,116089,2
78.35376834869385,-1234,-1562,1191,116053,2
78.39338636398315,-1254,-1647,941,116010,2
78.43332505226135,-1207,-1626,1010,115943,2
78.47351241111755,-1182,-1624,1000,115926,2
78.51240086555481,-1041,-1615,884,116000,2
78.55247211456299,-1012,-1624,834,116006,2
78.5923662185669,-992,-1612,897,116030,2
78.6325421333313,-922,-1636,856,116047,2
78.67245411872864,-925,-1651,785,116001,2
78.7123908996582,-895,-1637,825,115976,2
78.75239324569702,-869,-1638,872,115933,2
78.79236674308777,-858,-1650,863,115883,2
78.83234143257141,-863,-1637,871,115827,2
78.87256717681885,-856,-1641,910,115804,2
78.9123604297638,-843,-1666,865,115841,2
78.95236825942993,-786,-1641,899,115892,2
78.99143528938293,-851,-1665,866,115893,2
79.03132963180542,-823,-1668,823,115865,2
79.07141757011414,-896,-1628,895,115880,2
79.11136674880981,-894,-1648,828,115910,2
79.15136814117432,-858,-1660,844,115957,2
79.19134068489075,-870,-1630,829,115950,2
79.23134016990662,-852,-1632,868,115930,2
79.27135705947876,-869,-1635,852,115888,2
79.31140542030334,-852,-1632,838,115865,2
79.3514404296875,-871,-1617,832,115854,2
79.39136743545532,-884,-1638,863,115873,2
79.43035650253296,-861,-1639,820,115907,2
79.4705183506012,-887,-1615,862,115948,2
79.51038217544556,-843,-1653,851,115942,2
79.55035877227783,-842,-1626,856,115942,2
79.59040451049805,-865,-1616,859,115900,2
79.63041663169861,-908,-1654,859,115901,2
79.67052054405212,-868,-1639,895,115891,2
79.71075963973999,-834,-1650,879,115844,2
79.75039410591125,-885,-1627,899,115842,2
79.79038119316101,-880,-1623,863,115845,2
79.83040618896484,-896,-1625,889,115857,2
79.87026619911194,-900,-1643,871,115854,2
79.90945816040039,-888,-1650,871,115871,2
79.94941210746765,-914,-1633,890,115905,2
79.98937392234802,-860,-1639,874,115958,2
80.02936339378357,-888,-1619,845,115965,2
80.06965374946594,-833,-1660,891,115948,2
80.10938620567322,-867,-1664,815,115864,2
80.14993119239807,-868,-1655,867,115800,2
80.18944597244263,-878,-1582,868,115804,2
80.22937345504761,-860,-1664,761,115829,2
80.26946640014648,-664,-1795,720,115860,2
80.30905389785767,-732,-1682,887,115895,2
80.34839630126953,-952,-1582,1009,115930,2
80.38839292526245,-957,-1637,857,115948,2
80.42836284637451,-874,-1688,786,115989,2
80.46836423873901,-781,-1702,869,115996,2
80.50845551490784,-759,-1694,867,115999,2
80.54837703704834,-768,-1668,800,115989,2
80.5883572101593,-792,-1636,840,115930,2
80.6284773349762,-848,-1671,830,115901,2
80.66836881637573,-793,-1746,774,115801,2
80.70857620239258,-791,-1695,831,115764,2
80.74739241600037,-880,-1658,839,115774,2
80.78738522529602,-820,-1704,825,115793,2
80.82736420631409,-772,-1732,763,115825,2
80.86735677719116,-775,-1737,732,115834,2
80.90737867355347,-780,-1694,829,115888,2
80.94740152359009,-788,-1711,777,115918,2
80.98780179023743,-772,-1755,734,115956,2
81.02763080596924,-780,-1733,779,115955,2
81.06744194030762,-800,-1748,773,115991,2
81.10735821723938,-776,-1729,761,116062,2
81.14736270904541,-759,-1760,729,116119,2
81.18643999099731,-741,-1742,725,116162,2
81.22640824317932,-758,-1763,769,116157,2
81.26645469665527,-760,-1762,713,116100,2
81.30648899078369,-777,-1731,749,116076,2
81.34640264511108,-771,-1751,733,116126,2
81.38656282424927,-781,-1758,746,116145,2
81.42689299583435,-758,-1775,696,116155,2
81.46650958061218,-760,-1756,722,116145,2
81.50651979446411,-776,-1758,754,116150,2
81.5464038848877,-733,-1770,725,116162,2
81.58641147613525,-750,-1777,715,116183,2
81.62544012069702,-743,-1760,751,116205,2
81.66534113883972,-766,-1754,732,116210,2
81.70542216300964,-746,-1770,703,116244,2
81.74541592597961,-736,-1755,742,116236,2
81.78560757637024,-756,-1733,731,116258,2
81.82539439201355,-733,-1770,692,116231,2
81.865407705307,-712,-1761,716,116132,2
81.90597224235535,-736,-1766,688,116046,2
81.94614267349243,-720,-1768,733,116054,2
81.98546147346497,-727,-1766,716,116078,2
82.02548837661743,-769,-1766,707,116111,2
82.06445264816284,-784,-1761,700,116142,2
82.10454320907593,-787,-1737,720,116138,2
82.14438319206238,-746,-1745,726,116133,2
82.18442368507385,-727,-1767,675,116154,2
82.2243754863739,-782,-1774,687,116174,2
82.26441955566406,-767,-1773,699,116165,2
82.30481672286987,-760,-1777,684,116165,2
82.34442234039307,-744,-1779,681,116137,2
82.38442778587341,-746,-1757,708,116132,2
82.42443776130676,-713,-1786,665,116073,2
82.46440601348877,-703,-1794,718,116020,2
82.5044903755188,-738,-1751,739,116032,2
82.54338836669922,-741,-1775,718,116078,2
82.58350229263306,-715,-1811,681,116158,2
82.62343955039978,-730,-1783,722,116191,2
82.66338443756104,-765,-1777,722,116232,2
82.70341634750366,-764,-1779,705,116245,2
82.74342513084412,-757,-1790,688,116231,2
82.78340125083923,-740,-1777,666,116238,2
82.82338690757751,-772,-1784,671,116203,2
82.86343693733215,-763,-1793,659,116205,2
82.90295743942261,-763,-1784,678,116214,2
82.9424180984497,-747,-1779,674,116235,2
82.98242783546448,-741,-1793,632,116232,2
83.0223925113678,-727,-1801,670,116197,2
83.06243371963501,-757,-1787,679,116126,2
83.10242938995361,-768,-1778,697,116143,2
83.14245367050171,-769,-1757,717,116164,2
83.18240904808044,-763,-1762,710,116142,2
83.22261905670166,-774,-1774,688,116132,2
83.26244354248047,-780,-1766,704,116112,2
83.30241966247559,-757,-1788,663,116129,2
83.34240961074829,-737,-1782,661,116160,2
83.3814446926117,-739,-1790,650,116183,2
83.42143368721008,-743,-1777,669,116193,2
83.46147918701172,-747,-1806,630,116199,2
83.50141191482544,-749,-1798,654,116189,2
83.54142117500305,-717,-1768,699,116204,2
83.58142733573914,-740,-1778,681,116183,2
83.621426820755,-722,-1782,680,116093,2
83.66228222846985,-769,-1755,702,116003,2
83.7017195224762,-787,-1783,676,115972,2
83.74142479896545,-775,-1762,734,116017,2
83.78145551681519,-751,-1804,648,116059,2
83.82043623924255,-760,-1773,691,116090,2
83.86045622825623,-788,-1752,727,116112,2
83.90044021606445,-773,-1753,711,116141,2
83.94048428535461,-779,-1773,701,116158,2
83.98040461540222,-801,-1789,708,116208,2
84.02042269706726,-790,-1756,707,116199,2
84.06045150756836,-807,-1749,714,116188,2
84.1004147529602,-765,-1779,696,116171,2
84.14042663574219,-770,-1777,679,116161,2
84.18047547340393,-771,-1750,662,116171,2
84.24762678146362,-748,-1783,676,116182,2
84.2603075504303,-755,-1762,674,116113,2
84.29939198493958,-774,-1741,691,116097,2
84.33944892883301,-753,-1737,728,116139,2
84.37950015068054,-761,-1772,671,116162,2
84.41949224472046,-789,-1741,705,116193,2
84.45945644378662,-807,-1714,741,116178,2
84.49953508377075,-793,-1741,733,116167,2
84.539954662323,-803,-1772,646,116142,2
84.57945227622986,-761,-1788,695,116129,2
84.61940002441406,-748,-1762,667,116125,2
84.65948581695557,-820,-1743,676,116135,2
84.69841957092285,-838,-1741,788,116142,2
84.7385265827179,-771,-1763,678,116137,2
84.77844882011414,-673,-1768,641,116158,2
84.8184449672699,-669,-1804,698,116158,2
84.85848689079285,-717,-1745,618,116079,2
84.89845585823059,-707,-1784,650,115956,2
84.93922710418701,-796,-1721,688,115938,2
84.97858357429504,-794,-1809,694,115921,2
85.01845622062683,-819,-1783,652,115941,2
85.05844831466675,-854,-1800,763,115944,2
85.09895515441895,-889,-1788,717,115981,2
85.13753271102905,-834,-1749,732,116000,2
85.17742872238159,-718,-1756,719,116015,2
85.21750617027283,-591,-1792,666,116048,2
85.25741195678711,-547,-1795,658,116063,2
85.29740118980408,-635,-1763,671,116107,2
85.33769655227661,-735,-1714,715,116077,2
85.37746858596802,-742,-1749,658,116072,2
85.41741228103638,-728,-1791,593,116038,2
85.45741820335388,-768,-1770,606,115915,2
85.49788284301758,-780,-1780,560,115718,2
85.53740739822388,-818,-1744,574,115719,2
85.57642793655396,-845,-1830,576,115759,2
85.61640572547913,-823,-1858,526,115832,2
85.65644001960754,-821,-1833,521,115880,2
85.6964008808136,-877,-1832,684,115892,2
85.73658013343811,-950,-1831,680,115903,2
85.77643966674805,-847,-1863,601,115922,2
85.81640219688416,-733,-1831,625,115934,2
85.85642623901367,-677,-1825,652,115905,2
85.89641165733337,-642,-1818,610,115921,2
85.93643188476562,-627,-1817,628,115902,2
85.97645235061646,-697,-1831,667,115946,2
86.01543474197388,-789,-1764,590,115962,2
86.05544328689575,-724,-1828,566,115919,2
86.09542679786682,-744,-1831,574,115728,2
86.13542628288269,-820,-1831,611,115602,2
86.17788505554199,-887,-1825,544,115613,2
86.21544408798218,-774,-1883,493,115677,2
86.25547456741333,-684,-1872,481,115736,2
86.29543733596802,-646,-1857,525,115669,2
86.33543157577515,-634,-1807,561,115666,2
86.37547183036804,-579,-1824,568,115690,2
86.41543912887573,-676,-1806,591,115725,2
86.45446372032166,-719,-1800,658,115765,2
86.49442601203918,-741,-1814,613,115787,2
86.5344443321228,-719,-1821,614,115814,2
86.57447171211243,-768,-1821,660,115847,2
86.614431142807,-846,-1799,622,115868,2
86.65442895889282,-808,-1864,580,115847,2
86.69444274902344,-745,-1863,565,115628,2
86.73446583747864,-715,-1828,581,115368,2
86.77444505691528,-657,-1842,570,115370,2
86.81444239616394,-639,-1835,578,115442,2
86.85441303253174,-609,-1852,554,115538,2
86.89346814155579,-650,-1804,558,115602,2
86.93343210220337,-652,-1808,556,115630,2
86.97346353530884,-660,-1806,598,115668,2
87.01347637176514,-673,-1852,560,115697,2
87.05348539352417,-647,-1852,543,115733,2
87.09346055984497,-684,-1813,610,115733,2
87.13345718383789,-679,-1823,622,115761,2
87.17376661300659,-694,-1806,590,115768,2
87.21345448493958,-723,-1764,619,115811,2
87.25347661972046,-683,-1859,577,115827,2
87.29346466064453,-698,-1874,580,115766,2
87.3324568271637,-742,-1870,612,115771,2
87.37324380874634,-796,-1867,611,115899,2
87.41243267059326,-716,-1820,664,116021,2
87.45243263244629,-697,-1814,611,116147,2
87.49242091178894,-715,-1826,574,116217,2
87.53244066238403,-769,-1818,583,116268,2
87.57267141342163,-763,-1886,522,116267,2
87.6124324798584,-801,-1856,608,116246,2
87.65244793891907,-799,-1837,657,116262,2
87.69242191314697,-755,-1833,622,116259,2
87.73268795013428,-729,-1813,609,116298,2
87.77163672447205,-676,-1813,692,116279,2
87.81148624420166,-703,-1769,646,116355,2
87.85144686698914,-650,-1803,761,116472,2
87.89151644706726,-1310,-1738,1153,116536,2
87.93153429031372,-1530,-1752,1829,116529,2
87.9714686870575,-1878,-1795,1724,116347,2
88.01153206825256,-1955,-1577,1630,116300,2
88.05146265029907,-1196,-1496,1867,116268,2
88.09149980545044,-833,-1184,1857,116181,2
88.13144373893738,-421,-948,1585,116087,2
88.17178678512573,-282,-719,1388,116017,2
88.21044063568115,-271,-481,1565,116028,2
88.25048565864563,-143,-315,1111,116049,2
88.29047513008118,-412,-69,1721,116112,2
88.33046555519104,-210,-43,1492,116217,2
88.3710355758667,-452,102,1801,116291,2
88.41042709350586,-524,175,1722,116296,2
88.45041370391846,-494,199,1689,116199,2
88.49046897888184,-566,246,1848,116113,2
88.53043246269226,-568,275,1838,116070,2
88.57043242454529,-511,249,2000,116070,2
88.61043810844421,-505,313,1993,116136,2
88.64951634407043,-464,255,1944,116241,2
88.68942832946777,-512,278,2010,116292,2
88.72945713996887,-454,199,1894,116350,2
88.76951193809509,-472,184,1888,116309,2
88.80943775177002,-532,151,1898,116290,2
88.84942102432251,-557,105,1900,116223,2
88.88945317268372,-623,108,2034,116078,2
88.92941999435425,-744,129,2089,115918,2
88.96944093704224,-634,120,2036,115779,2
89.00947785377502,-672,139,2066,115701,2
89.0494225025177,-547,110,1796,115703,2
89.08948373794556,-622,143,1915,115665,2
89.12843704223633,-655,134,1967,115642,2
89.16855216026306,-580,99,1954,115638,2
89.20843815803528,-568,86,1945,115642,2
89.2484188079834,-530,67,1876,115643,2
89.28843665122986,-504,36,1823,115646,2
89.3284809589386,-518,-32,1828,115682,2
89.36845922470093,-438,-103,1626,115721,2
89.40854358673096,-606,-168,1947,115787,2
89.44846510887146,-534,-248,1815,115839,2
89.48844528198242,-655,-300,1833,115925,2
89.52845048904419,-609,-418,1793,115946,2
89.56747078895569,-584,-565,1409,115970,2
89.60743641853333,-661,-700,1693,115994,2
89.64743065834045,-698,-921,1262,116018,2
89.68744921684265,-926,-1165,1301,115992,2
89.72744417190552,-1224,-1311,1458,115807,2
89.76745986938477,-1159,-1532,1083,115792,2
89.80795788764954,-1147,-1621,1185,115782,2
89.8483419418335,-1000,-1832,1164,115787,2
89.8875024318695,-1192,-1805,1104,115767,2
89.92745590209961,-1257,-1774,986,115727,2
89.96744775772095,-1453,-1783,756,115732,2
90.00818109512329,-1337,-1667,899,115738,2
90.04647397994995,-1025,-1675,1006,115746,2
90.08646845817566,-1055,-1634,825,115772,2
90.12644100189209,-941,-1653,743,115770,2
90.16640949249268,-900,-1683,728,115750,2
90.20737314224243,-922,-1678,857,115732,2
90.24670600891113,-871,-1748,805,115700,2
90.28646802902222,-812,-1706,742,115476,2
90.3265175819397,-763,-1631,793,115105,2
90.36650109291077,-726,-1628,808,115018,2
90.40668272972107,-786,-1702,744,114995,2
90.44647336006165,-790,-1740,790,115051,2
90.48568367958069,-836,-1672,798,115092,2
90.52548456192017,-863,-1695,753,115119,2
90.56550812721252,-858,-1714,846,115146,2
90.60554647445679,-990,-1697,798,115202,2
90.64551997184753,-1014,-1716,833,115206,2
90.68549656867981,-851,-1656,785,115247,2
90.72559452056885,-706,-1734,786,115290,2
90.76550769805908,-652,-1679,875,115287,2
90.80553436279297,-845,-1897,967,115259,2
90.84555554389954,-525,-1589,568,115266,2
90.88547134399414,-31,-1716,257,115165,2
90.92549443244934,-701,-1796,839,114884,2
90.96451377868652,-1089,-1731,999,114719,2
91.00453805923462,-1130,-1673,893,114634,2
91.04453682899475,-913,-1730,723,114632,2
91.08454728126526,-834,-1724,862,114649,2
91.12452721595764,-835,-1741,843,114620,2
91.16459655761719,-848,-1752,675,114589,2
91.20464587211609,-860,-1753,796,114595,2
91.24452018737793,-837,-1809,702,114633,2
91.28451156616211,-796,-1819,615,114683,2
91.3245267868042,-780,-1761,710,114770,2
91.36446976661682,-734,-1762,708,114830,2
91.40458965301514,-786,-1750,738,114920,2
91.44351124763489,-780,-1732,727,114985,2
91.4835250377655,-834,-1757,754,115040,2
91.52350997924805,-845,-1744,708,114822,2
91.56352615356445,-901,-1728,690,114575,2
91.60351777076721,-835,-1748,690,114558,2
91.64384341239929,-846,-1724,695,114622,2
91.68351316452026,-836,-1747,630,114782,2
91.72347092628479,-853,-1748,645,114889,2
91.76351857185364,-824,-1726,694,114931,2
91.80348420143127,-852,-1706,719,114989,2
91.84363341331482,-760,-1765,708,115051,2
91.88247537612915,-816,-1699,779,115124,2
91.92253065109253,-777,-1713,750,115186,2
91.96253538131714,-781,-1717,746,115251,2
92.00249028205872,-786,-1711,807,115292,2
92.04253721237183,-853,-1694,781,115326,2
92.08250117301941,-779,-1715,778,115332,2
92.12252163887024,-841,-1723,777,115349,2
92.16255736351013,-808,-1721,758,115195,2
92.20250654220581,-844,-1722,735,115092,2
92.2428047657013,-841,-1685,819,115116,2
92.28250074386597,-824,-1695,760,115239,2
92.3214819431305,-790,-1733,790,115306,2
92.36146569252014,-884,-1683,771,115342,2
92.40146327018738,-809,-1711,788,115382,2
92.44183135032654,-877,-1700,776,115406,2
92.48173785209656,-854,-1699,786,115418,2
92.52150082588196,-819,-1707,783,115415,2
92.56155300140381,-834,-1708,737,115381,2
92.60148549079895,-823,-1698,802,115303,2
92.64164137840271,-805,-1728,784,115244,2
92.68185377120972,-790,-1694,766,115248,2
92.72148871421814,-807,-1648,811,115262,2
92.76050353050232,-774,-1735,755,115258,2
92.80055618286133,-829,-1688,760,114998,2
92.84089589118958,-875,-1645,818,114781,2
92.8805661201477,-792,-1725,783,114781,2
92.92047595977783,-854,-1679,830,114857,2
92.96049118041992,-852,-1701,748,114910,2
93.00051140785217,-851,-1686,780,114906,2
93.04075694084167,-863,-1671,833,114854,2
93.08051228523254,-819,-1697,822,114863,2
93.12058591842651,-815,-1716,797,114871,2
93.1604962348938,-797,-1683,860,114917,2
93.19951057434082,-795,-1691,770,114933,2
93.23971271514893,-783,-1673,829,114938,2
93.2796540260315,-867,-1689,785,114978,2
93.31949806213379,-816,-1711,759,114994,2
93.35960364341736,-847,-1685,817,114998,2
93.39952445030212,-823,-1717,744,114824,2
93.43956398963928,-850,-1677,825,114430,2
93.47949433326721,-883,-1655,807,114302,2
93.51947689056396,-819,-1701,823,114263,2
93.55951070785522,-835,-1687,784,114329,2
93.59948945045471,-839,-1681,845,114374,2
93.63862609863281,-854,-1673,797,114382,2
93.6784884929657,-840,-1693,778,114400,2
93.71848130226135,-883,-1690,782,114438,2
93.7584776878357,-825,-1700,777,114439,2
93.79854917526245,-855,-1693,777,114458,2
93.83887124061584,-798,-1702,802,114467,2
93.87853074073792,-809,-1699,770,114471,2
93.91853451728821,-831,-1695,813,114482,2
93.95849919319153,-786,-1678,783,114501,2
93.99850606918335,-797,-1722,804,114515,2
94.03751611709595,-788,-1707,820,114230,2
94.07752108573914,-810,-1673,820,114027,2
94.1174898147583,-851,-1680,812,114013,2
94.15750908851624,-858,-1695,843,114027,2
94.19750094413757,-865,-1672,788,114054,2
94.23753499984741,-836,-1687,812,114074,2
94.27749705314636,-885,-1680,739,114061,2
94.31753969192505,-868,-1688,764,114028,2
94.38385272026062,-863,-1691,763,114042,2
94.40135383605957,-858,-1675,775,114050,2
94.43750309944153,-814,-1702,833,114108,2
94.4765522480011,-846,-1696,786,114177,2
94.5165421962738,-781,-1713,846,114223,2
94.55656290054321,-842,-1677,854,114275,2
94.59657073020935,-767,-1706,797,114356,2
94.63648962974548,-842,-1693,794,114361,2
94.6765387058258,-782,-1716,795,114057,2
94.71653199195862,-841,-1661,815,113866,2
94.75651121139526,-810,-1697,792,113777,2
94.79654860496521,-797,-1708,782,113752,2
94.83653497695923,-831,-1703,814,113767,2
94.87662935256958,-785,-1683,804,113804,2
94.91550970077515,-820,-1712,775,113835,2
94.95550227165222,-830,-1666,822,113842,2
94.99550461769104,-826,-1693,798,113894,2
95.03551459312439,-865,-1675,798,113941,2
95.07559108734131,-860,-1695,772,113996,2
95.1155686378479,-874,-1680,774,114052,2
95.15550875663757,-840,-1707,779,114075,2
95.19549894332886,-891,-1695,791,114071,2
95.23572850227356,-813,-1704,792,114076,2
95.27588367462158,-864,-1665,832,114088,2
95.31552004814148,-833,-1755,744,113952,2
95.35455346107483,-907,-1693,737,113663,2
95.39458727836609,-917,-1797,701,113556,2
95.43451976776123,-730,-1807,645,113540,2
95.47503066062927,-833,-1751,496,113566,2
95.5145115852356,-893,-1674,984,113592,2
95.55461025238037,-986,-1598,990,113569,2
95.59457278251648,-988,-1589,869,113572,2
95.63454461097717,-888,-1562,838,113557,2
95.67478036880493,-803,-1662,774,113594,2
95.71454286575317,-757,-1738,726,113620,2
95.7545051574707,-792,-1753,666,113676,2
95.7935004234314,-849,-1755,663,113719,2
95.83352589607239,-609,-1728,699,113752,2
95.87409949302673,-561,-1753,648,113831,2
95.91361665725708,-758,-1707,738,113902,2
95.95352363586426,-705,-1787,635,113965,2
95.9935233592987,-855,-1722,692,113765,2
96.03353810310364,-926,-1732,598,113560,2
96.07355785369873,-863,-1731,731,113519,2
96.11353802680969,-929,-1738,736,113601,2
96.15355610847473,-904,-1752,715,113719,2
96.1935646533966,-904,-1721,758,113885,2
96.23282647132874,-906,-1676,732,114007,2
96.27252531051636,-951,-1669,718,114060,2
96.3125786781311,-963,-1698,692,114122,2
96.35252857208252,-967,-1727,586,114183,2
96.39252638816833,-960,-1728,567,114204,2
96.43251705169678,-959,-1749,574,114208,2
96.47303605079651,-918,-1773,546,114204,2
96.51256680488586,-890,-1806,556,114150,2
96.55256509780884,-860,-1816,613,114094,2
96.59253549575806,-812,-1838,600,114056,2
96.63259315490723,-723,-1864,624,113981,2
96.67250037193298,-659,-1875,650,113667,2
96.71151065826416,-759,-1787,722,113491,2
96.75153040885925,-728,-1795,681,113472,2
96.79155707359314,-657,-1843,614,113545,2
96.83157682418823,-514,-1868,606,113614,2
96.87166810035706,-557,-1835,621,113615,2
96.91157078742981,-558,-1800,633,113616,2
96.95151877403259,-694,-1780,600,113621,2
96.99154257774353,-773,-1796,564,113652,2
97.0315191745758,-788,-1807,555,113678,2
97.0715069770813,-813,-1791,585,113736,2
97.11175012588501,-833,-1773,596,113832,2
97.15156269073486,-846,-1793,579,113959,2
97.19052648544312,-876,-1787,540,114118,2
97.23056554794312,-902,-1769,546,114358,2
97.2705659866333,-863,-1809,557,114480,2
97.31056547164917,-861,-1811,567,114279,2
97.35061168670654,-904,-1763,595,114152,2
97.39058661460876,-813,-1803,563,114320,2
97.43052768707275,-757,-1811,601,114482,2
97.47059178352356,-748,-1807,610,114568,2
97.51075553894043,-695,-1843,541,114615,2
97.55056095123291,-708,-1810,591,114647,2
97.59055042266846,-638,-1855,570,114731,2
97.62953996658325,-681,-1842,546,114835,2
97.66975235939026,-657,-1841,626,114876,2
97.70956659317017,-721,-1841,574,114931,2
97.74972939491272,-694,-1838,619,114999,2
97.7896146774292,-764,-1816,591,115044,2
97.82959961891174,-688,-1828,609,115098,2
97.86954164505005,-748,-1818,611,115104,2
97.90976452827454,-734,-1834,560,114965,2
97.9496066570282,-780,-1815,577,114794,2
97.98956298828125,-770,-1797,606,114771,2
98.02957224845886,-731,-1796,583,114810,2
98.06958818435669,-694,-1813,587,114855,2
98.10873007774353,-740,-1813,587,114886,2
98.14852499961853,-762,-1833,593,114868,2
98.18855285644531,-768,-1805,586,114865,2
98.22857165336609,-760,-1803,608,114887,2
98.26863265037537,-714,-1778,573,114894,2
98.30911803245544,-703,-1809,562,114924,2
98.34862661361694,-707,-1876,611,114924,2
98.38856983184814,-818,-1814,670,114913,2
98.42852687835693,-840,-1764,719,114906,2
98.46858525276184,-754,-1763,651,114892,2
98.50855898857117,-640,-1827,629,114795,2
98.5475583076477,-721,-1806,604,114503,2
98.5875825881958,-731,-1835,575,114416,2
98.62753248214722,-738,-1836,584,114466,2
98.66756319999695,-762,-1794,677,114552,2
98.70757293701172,-722,-1796,586,114625,2
98.74753499031067,-671,-1808,575,114678,2
98.78757166862488,-721,-1812,624,114669,2
98.82760190963745,-753,-1830,571,114683,2
98.86754775047302,-734,-1823,625,114678,2
98.9075391292572,-743,-1815,625,114731,2
98.94754076004028,-741,-1802,624,114759,2
98.98756575584412,-743,-1787,665,114818,2
99.02653741836548,-737,-1823,610,114884,2
99.06654858589172,-766,-1786,648,114937,2
99.10654950141907,-751,-1817,600,114971,2
99.14658570289612,-744,-1835,590,114741,2
99.18654656410217,-726,-1811,607,114573,2
99.22664332389832,-739,-1798,646,114625,2
99.26684045791626,-738,-1812,591,114692,2
99.30656123161316,-724,-1819,611,114741,2
99.34656548500061,-712,-1814,649,114773,2
99.38655495643616,-764,-1809,607,114785,2
99.42660355567932,-709,-1808,640,114817,2
99.46653604507446,-692,-1818,611,114877,2
99.50562047958374,-720,-1806,622,114944,2
99.54555916786194,-711,-1800,640,114999,2
99.58568167686462,-756,-1802,621,115041,2
99.62555480003357,-724,-1816,620,115079,2
99.66554069519043,-755,-1815,642,115120,2
99.70554494857788,-742,-1800,598,115138,2
99.74565315246582,-701,-1825,605,115086,2
99.78618478775024,-738,-1814,614,114827,2
99.82558107376099,-739,-1784,638,114654,2
99.86554765701294,-721,-1801,624,114678,2
99.90554404258728,-753,-1803,619,114758,2
99.94598650932312,-725,-1827,623,114846,2
99.98461151123047,-752,-1798,639,114881,2
100.02460741996765,-744,-1793,609,114917,2
100.06454539299011,-744,-1805,637,114964,2
100.10454368591309,-709,-1821,613,114998,2
100.14554381370544,-742,-1821,629,115044,2
100.18478059768677,-730,-1779,641,115062,2
100.22463536262512,-713,-1812,626,115081,2
100.26503992080688,-729,-1796,620,115075,2
100.30481052398682,-722,-1830,587,115058,2
100.34457206726074,-698,-1809,655,115042,2
100.38530611991882,-718,-1836,546,114911,2
100.42480611801147,-738,-1784,633,114694,2
100.46356105804443,-722,-1788,631,114682,2
100.50359606742859,-740,-1798,710,114753,2
100.54422378540039,-760,-1822,619,114846,2
100.58394432067871,-757,-1814,645,114897,2
100.62356567382812,-766,-1808,690,114924,2
100.66354990005493,-724,-1804,591,114925,2
100.70355653762817,-744,-1805,612,114917,2
100.74401545524597,-726,-1817,597,114936,2
100.7836320400238,-752,-1819,560,114922,2
100.823721408844,-751,-1793,628,114954,2
100.86361932754517,-730,-1808,621,114957,2
100.9025821685791,-740,-1807,602,114976,2
100.94307780265808,-730,-1816,622,114950,2
100.9826431274414,-705,-1816,615,114728,2
101.02259540557861,-769,-1793,599,114408,2
101.06260418891907,-755,-1782,650,114374,2
101.10256791114807,-735,-1800,611,114406,2
101.14261269569397,-719,-1815,613,114450,2
101.18259406089783,-756,-1782,686,114475,2
101.22255969047546,-730,-1813,602,114518,2
101.26256394386292,-749,-1806,615,114519,2
101.30307459831238,-735,-1796,655,114597,2
101.34159636497498,-751,-1812,595,114665,2
101.38181376457214,-757,-1798,633,114731,2
101.4215738773346,-747,-1800,637,114776,2
101.46157622337341,-745,-1804,605,114842,2
101.50155687332153,-772,-1787,648,114897,2
101.54160857200623,-737,-1807,581,114966,2
101.58158349990845,-737,-1807,630,114848,2
101.6216299533844,-733,-1808,600,114502,2
101.66157126426697,-774,-1771,617,114389,2
101.70159387588501,-738,-1802,662,114453,2
101.74158787727356,-709,-1822,587,114561,2
101.7815728187561,-747,-1792,660,114702,2
101.82057619094849,-732,-1807,641,114827,2
101.86115980148315,-721,-1802,604,114923,2
101.90063095092773,-736,-1787,640,115061,2
101.94061279296875,-733,-1806,623,115134,2
101.98067450523376,-704,-1814,601,115220,2
102.0206139087677,-741,-1792,654,115249,2
102.06060647964478,-743,-1806,621,115273,2
102.10105514526367,-757,-1817,617,115257,2
102.14059662818909,-697,-1804,637,115279,2
102.18068671226501,-737,-1795,669,115307,2
102.22067141532898,-700,-1841,602,115228,2
102.25963425636292,-762,-1811,618,115227,2
102.29961204528809,-736,-1792,665,115402,2
102.3395893573761,-716,-1824,660,115544,2
102.37964940071106,-679,-1833,565,115742,2
102.41956877708435,-752,-1791,639,115879,2
102.45958805084229,-729,-1811,614,115959,2
102.499591588974,-738,-1809,600,116029,2
102.53963351249695,-701,-1823,616,116111,2
102.580073595047,-758,-1851,580,116154,2
102.61961483955383,-712,-1851,601,116220,2
102.65962743759155,-706,-1828,654,116346,2
102.69958448410034,-682,-1805,706,116403,2
102.73859143257141,-684,-1872,375,116431,2
102.77868485450745,-719,-1756,683,116510,2
102.81865167617798,-699,-1803,742,116498,2
102.85864210128784,-698,-1857,474,116341,2
102.89866518974304,-727,-1784,672,116204,2
102.93860459327698,-724,-1808,596,116125,2
102.97875881195068,-695,-1843,587,116018,2
103.01871395111084,-741,-1811,591,115910,2
103.0586187839508,-733,-1817,604,115888,2
103.098623752594,-724,-1827,611,115838,2
103.13866710662842,-722,-1810,621,115872,2
103.17795515060425,-726,-1817,601,115907,2
103.21762800216675,-716,-1814,654,115912,2
103.25758647918701,-693,-1831,612,115886,2
103.2975914478302,-694,-1827,651,115861,2
103.337641954422,-708,-1821,619,115807,2
103.3776535987854,-691,-1845,604,115734,2
103.41762948036194,-689,-1818,629,115642,2
103.4576244354248,-677,-1864,564,115540,2
103.49764561653137,-704,-1825,600,115403,2
103.53772401809692,-740,-1792,608,115353,2
103.57759165763855,-692,-1840,569,115350,2
103.6176598072052,-725,-1825,609,115326,2
103.65661597251892,-702,-1822,585,115233,2
103.69659304618835,-717,-1839,565,115142,2
103.73672032356262,-711,-1812,611,115089,2
103.77662539482117,-718,-1818,602,115029,2
103.81665134429932,-732,-1813,626,115025,2
103.85691809654236,-716,-1774,779,115063,2
103.89666509628296,-838,-1721,937,115122,2
103.93664169311523,-854,-1707,837,115113,2
103.97660541534424,-1077,-1415,1881,115127,2
104.01659727096558,-1349,-1731,1491,114978,2
104.05668210983276,-1297,-1643,1041,114947,2
104.09662818908691,-1057,-1400,1715,114807,2
104.13640356063843,-505,-1346,827,114708,2
104.17568373680115,-599,-924,1567,114718,2
104.21566104888916,-361,-970,1274,114751,2
104.27455997467041,-554,-815,1393,114757,2
104.29638695716858,-603,-799,1709,114755,2
104.33563542366028,-561,-805,1653,114672,2
104.37560868263245,-594,-769,1798,114557,2
104.41567897796631,-508,-787,1680,114517,2
104.45559000968933,-601,-732,1762,114484,2
104.49562859535217,-594,-697,1848,114480,2
104.535649061203,-630,-641,1936,114574,2
104.57464575767517,-622,-625,1964,114683,2
104.61467218399048,-473,-643,1804,114781,2
104.65464425086975,-552,-595,2029,114873,2
104.6946439743042,-553,-623,1816,114920,2
104.7346305847168,-614,-599,1970,114988,2
104.77461671829224,-634,-535,2036,115135,2
104.81498789787292,-733,-422,2270,115368,2
104.8545994758606,-677,-470,2077,115470,2
104.89465165138245,-659,-389,1868,115550,2
104.93461108207703,-538,-352,1892,115535,2
104.97524523735046,-446,-304,1851,115466,2
105.01488971710205,-415,-244,1851,115398,2
105.05364918708801,-266,-244,1712,115338,2
105.09362554550171,-442,-209,1911,115280,2
105.13363480567932,-462,-133,1821,115253,2
105.17363238334656,-483,-138,1910,115188,2
105.21406579017639,-544,-70,2024,115162,2
105.25466275215149,-486,-100,1931,115112,2
105.293621301651,-505,-83,2007,115079,2
105.33361077308655,-497,-101,1879,115010,2
105.37361788749695,-406,-73,1935,114970,2
105.41383099555969,-325,-132,1699,114789,2
105.45359253883362,-10,-380,840,114580,2
105.49316239356995,85,-1045,1412,114516,2
105.53294539451599,-235,-1408,1282,114531,2
105.57277584075928,-595,-2006,985,114528,2
105.61300492286682,-1437,-1670,2200,114585,2
105.65260672569275,-1099,-2149,513,114479,2
105.69270539283752,-1954,-1810,1450,114539,2
105.73266887664795,-1316,-1705,1653,114546,2
105.77259802818298,-789,-1847,705,114477,2
105.81261396408081,-632,-1888,735,114468,2
105.85260534286499,-483,-1824,943,114453,2
105.89264345169067,-666,-1755,861,114453,2
105.93261623382568,-718,-1770,663,114437,2
105.97161149978638,-717,-1823,633,114399,2
106.01211190223694,-603,-1885,848,114261,2
106.05165076255798,-580,-1840,864,114103,2
106.09173154830933,-670,-1757,730,114061,2
106.13163089752197,-573,-1807,723,114076,2
106.17165303230286,-556,-1799,790,114090,2
106.21193027496338,-573,-1805,867,114125,2
106.25175333023071,-605,-1827,721,114158,2
106.29167151451111,-644,-1783,807,114235,2
106.3316445350647,-724,-1771,938,114296,2
106.37164688110352,-644,-1775,779,114351,2
106.41071557998657,-698,-1737,919,114393,2
106.45067524909973,-860,-1696,1010,114426,2
106.49074339866638,-1011,-1674,1070,114435,2
106.53068113327026,-1411,-1661,994,114438,2
106.57063221931458,-1740,-1570,1492,114400,2
106.61134648323059,-1773,-1661,1346,114412,2
106.65069770812988,-1231,-1539,1264,114308,2
106.69065260887146,-932,-1255,1384,114214,2
106.73070216178894,-923,-982,1101,114178,2
106.77063822746277,-965,-818,1078,114148,2
106.81059074401855,-796,-842,1150,114174,2
106.85072684288025,-1004,-798,1115,114182,2
106.8896234035492,-1149,-724,1192,114164,2
106.92963314056396,-1244,-718,1309,114151,2
106.96965289115906,-1108,-711,1239,114166,2
107.00960874557495,-1162,-637,1277,114181,2
107.0496609210968,-1121,-645,1412,114167,2
107.0904471874237,-1082,-656,1246,114161,2
107.12965440750122,-1168,-644,1291,114101,2
107.16962885856628,-1026,-690,1446,114078,2
107.20963311195374,-1135,-768,1446,114028,2
107.25023937225342,-1198,-854,1575,114037,2
107.28965377807617,-1063,-988,1581,114032,2
107.32966899871826,-1120,-1038,1602,113935,2
107.36963558197021,-213,-1389,711,113824,2
107.40868473052979,-1169,-1198,1028,113798,2
107.44862508773804,-1726,-1048,1065,113805,2
107.48862528800964,-1381,-999,1464,113819,2
107.52864098548889,-1171,-1062,1598,113838,2
107.56864547729492,-1048,-1057,1486,113882,2
107.6086938381195,-1173,-1111,1500,113898,2
107.64922904968262,-1273,-1195,1064,113950,2
107.68868112564087,-1268,-1270,1096,113992,2
107.72867631912231,-1338,-1275,1141,114036,2
107.76870512962341,-1324,-1268,1021,114029,2
107.80863642692566,-1217,-1283,900,114069,2
107.84925079345703,-1088,-1275,1178,114087,2
107.88765716552734,-1147,-1268,1074,114079,2
107.92771315574646,-1231,-1272,1037,114080,2
107.96767330169678,-1200,-1282,1047,114018,2
108.00769424438477,-1151,-1291,1043,113853,2
108.0478994846344,-1268,-1282,1019,113808,2
108.08765411376953,-1172,-1312,1004,113817,2
108.1276605129242,-1248,-1301,1021,113857,2
108.16769123077393,-1181,-1305,1010,113844,2
108.2076530456543,-1181,-1278,1115,113844,2
108.24765110015869,-1151,-1294,1084,113836,2
108.2876718044281,-1210,-1297,1020,113868,2
108.32770729064941,-1132,-1291,1110,113904,2
108.36668229103088,-1148,-1312,1016,113935,2
108.40667128562927,-1206,-1294,1016,113944,2
108.44673728942871,-1168,-1296,1094,113953,2
108.48664426803589,-1130,-1337,981,113972,2
108.5266501903534,-1209,-1310,1037,113981,2
108.5666491985321,-1121,-1329,1092,113981,2
108.60668087005615,-1188,-1340,1038,113841,2
108.64664196968079,-1153,-1306,1128,113686,2
108.68666529655457,-1192,-1329,969,113678,2
108.72662377357483,-1107,-1342,1055,113719,2
108.76668763160706,-1175,-1325,1076,113770,2
108.80669260025024,-1149,-1321,1002,113825,2
108.84566593170166,-1139,-1310,1122,113848,2
108.8857753276825,-1232,-1338,976,113871,2
108.92568159103394,-1155,-1333,1061,113884,2
108.96571373939514,-1111,-1338,1089,113908,2
109.00571036338806,-1081,-1344,1023,113926,2
109.04566311836243,-1219,-1321,1010,113932,2
109.08573746681213,-1136,-1334,1039,113917,2
109.12576270103455,-1134,-1345,1007,113917,2
109.16570496559143,-1143,-1321,1062,113902,2
109.20567798614502,-1171,-1338,1018,113921,2
109.24572348594666,-1136,-1338,1025,113756,2
109.28590941429138,-1147,-1321,1063,113605,2
109.32466650009155,-1165,-1330,984,113628,2
109.36468291282654,-1163,-1338,1054,113650,2
109.40469455718994,-1134,-1339,1010,113686,2
109.44468522071838,-1158,-1361,999,113743,2
109.48481321334839,-1199,-1342,1003,113753,2
109.52467679977417,-1116,-1355,1007,113761,2
109.56465792655945,-1177,-1339,1041,113764,2
109.604656457901,-1155,-1355,983,113747,2
109.64471888542175,-1159,-1345,1042,113759,2
109.68509459495544,-1151,-1324,1062,113771,2
109.72472763061523,-1160,-1355,978,113802,2
109.76469111442566,-1203,-1356,1032,113825,2
109.80366683006287,-1156,-1351,984,113845,2
109.84365439414978,-1147,-1334,1009,113869,2
109.88382124900818,-1156,-1365,983,113850,2
109.92369222640991,-1131,-1338,1018,113687,2
109.96368145942688,-1173,-1345,1020,113609,2
110.0036883354187,-1191,-1333,1019,113600,2
110.04371237754822,-1145,-1345,1025,113619,2
110.0837197303772,-1176,-1328,1020,113628,2
110.12372708320618,-1110,-1326,1074,113659,2
110.16379928588867,-1206,-1339,982,113686,2
110.20373225212097,-1131,-1355,1004,113707,2
110.24271821975708,-1207,-1337,1019,113729,2
110.28309798240662,-1141,-1349,988,113732,2
110.3227162361145,-1168,-1321,997,113750,2
110.36268377304077,-1140,-1329,1018,113759,2
110.40269708633423,-1150,-1341,1004,113791,2
110.44270539283752,-1160,-1327,1017,113793,2
110.48265814781189,-1153,-1338,1016,113792,2
110.52278327941895,-1143,-1322,988,113780,2
110.56271982192993,-1173,-1357,1018,113778,2
110.60269236564636,-1126,-1325,1016,113627,2
110.64272427558899,-1195,-1326,1021,113551,2
110.6827962398529,-1144,-1330,1020,113568,2
110.72172355651855,-1160,-1359,1024,113611,2
110.76170754432678,-1150,-1342,981,113649,2
110.80180072784424,-1146,-1328,1017,113675,2
110.8417637348175,-1183,-1344,968,113683,2
110.88171720504761,-1126,-1350,1008,113698,2
110.92169690132141,-1168,-1351,1014,113692,2
110.96169710159302,-1160,-1353,1005,113679,2
111.00168085098267,-1179,-1337,1038,113693,2
111.04173612594604,-1133,-1356,986,113696,2
111.08169484138489,-1204,-1349,1024,113723,2
111.1216983795166,-1134,-1368,994,113754,2
111.16074228286743,-1151,-1362,1001,113755,2
111.20071649551392,-1164,-1352,993,113772,2
111.24069738388062,-1137,-1361,985,113712,2
111.2809510231018,-1152,-1345,1028,113543,2
111.32072043418884,-1188,-1358,979,113502,2
111.36072492599487,-1146,-1357,993,113523,2
111.40070343017578,-1177,-1343,1007,113526,2
111.44069504737854,-1157,-1365,1009,113550,2
111.4806752204895,-1171,-1363,991,113571,2
111.52072238922119,-1154,-1355,991,113569,2
111.56076741218567,-1164,-1361,980,113615,2
111.60064148902893,-1140,-1370,984,113633,2
111.63971710205078,-1223,-1380,997,113646,2
111.67985725402832,-1172,-1350,975,113667,2
111.71971440315247,-1126,-1355,992,113698,2
111.75971031188965,-1207,-1352,950,113703,2
111.7996985912323,-1154,-1353,1014,113743,2
111.83969449996948,-1207,-1358,974,113735,2
111.87970662117004,-1140,-1352,972,113720,2
111.91978979110718,-1217,-1361,977,113629,2
111.9597315788269,-1130,-1347,1007,113471,2
111.99970078468323,-1188,-1352,985,113396,2
112.03973913192749,-1176,-1351,964,113454,2
112.07869577407837,-1163,-1354,1000,113484,2
112.11878538131714,-1177,-1355,973,113541,2
112.15888285636902,-1143,-1369,1008,113575,2
112.1986734867096,-1170,-1369,942,113611,2
112.23874354362488,-1156,-1355,1015,113651,2
112.27865505218506,-1168,-1363,959,113683,2
112.31911063194275,-1161,-1355,980,113698,2
112.35880732536316,-1173,-1351,1003,113704,2
112.39866662025452,-1153,-1361,966,113721,2
112.43873071670532,-1175,-1349,998,113713,2
112.47868800163269,-1144,-1364,994,113760,2
112.51872730255127,-1195,-1350,1003,113787,2
112.55772018432617,-1148,-1350,1001,113802,2
112.59773206710815,-1182,-1375,1020,113812,2
