Timestamp,AccX,AccY,AccZ,Heart_IR,Phase
0.02959752082824707,-2042,1123,157,105378,0
0.06782221794128418,-1768,1150,164,105451,0
0.10784125328063965,-1587,1195,382,105537,0
0.14780330657958984,-1459,1257,468,105486,0
0.18822383880615234,-1399,1245,401,105466,0
0.22817087173461914,-1347,1278,350,105452,0
0.26905226707458496,-1226,1297,384,105443,0
0.3077678680419922,-1232,1289,323,105425,0
0.3478245735168457,-1256,1294,346,105432,0
0.38774847984313965,-1239,1246,339,105453,0
0.42778968811035156,-1254,1250,343,105485,0
0.46779322624206543,-1388,1354,370,105553,0
0.507760763168335,-1567,1387,406,105660,0
0.5479001998901367,-1663,1396,339,105661,0
0.5867345333099365,-1664,1328,231,105629,0
0.6530354022979736,-1583,1290,237,105591,0
0.6697344779968262,-1534,1263,261,105614,0
0.7108016014099121,-1566,1237,275,105657,0
0.7468140125274658,-1578,1253,279,105713,0
0.7867252826690674,-1623,1293,323,105773,0
0.8267498016357422,-1637,1301,274,105798,0
0.8667211532592773,-1644,1337,265,105800,0
0.90677809715271,-1620,1317,233,105846,0
0.9467546939849854,-1630,1301,211,105869,0
0.9867496490478516,-1624,1301,200,105993,0
1.0267260074615479,-1615,1296,192,106077,0
1.065721035003662,-1588,1288,217,106150,0
1.1060163974761963,-1563,1286,249,106191,0
1.1460225582122803,-1517,1283,277,106182,0
1.1859815120697021,-1478,1282,231,106165,0
1.2260758876800537,-1509,1304,263,106114,0
1.2657575607299805,-1482,1307,227,106092,0
1.3057527542114258,-1503,1314,254,106013,0
1.345733404159546,-1605,1294,283,105938,0
1.3857293128967285,-1620,1324,288,105883,0
1.425746202468872,-1588,1365,273,105874,0
1.465747356414795,-1592,1356,278,105884,0
1.505831003189087,-1582,1370,219,105923,0
1.544919490814209,-1605,1399,159,105967,0
1.5847961902618408,-1574,1419,234,106014,0
1.6248927116394043,-1458,1414,244,106065,0
1.6647062301635742,-1298,1375,226,106208,0
1.7047488689422607,-1188,1371,269,106289,0
1.7451083660125732,-1201,1375,286,106326,0
1.7847251892089844,-1171,1379,269,106292,0
1.8249444961547852,-1187,1403,270,106317,0
1.864729404449463,-1262,1456,322,106264,0
1.9047210216522217,-1387,1475,304,106190,0
1.9449737071990967,-1480,1511,262,106133,0
1.9849374294281006,-1462,1512,258,106107,0
2.0247645378112793,-1430,1541,237,106085,0
2.0637285709381104,-1448,1545,213,106060,0
2.1037495136260986,-1421,1526,177,106055,0
2.144284248352051,-1376,1518,195,106096,0
2.1837892532348633,-1373,1472,200,106139,0
2.2237648963928223,-1335,1450,181,106170,0
2.2637288570404053,-1365,1438,217,106175,0
2.3037543296813965,-1361,1431,233,106181,0
2.343756914138794,-1348,1436,216,106178,0
2.3837413787841797,-1362,1458,219,106182,0
2.423710584640503,-1409,1476,224,106149,0
2.463768720626831,-1436,1489,231,106130,0
2.503756046295166,-1398,1496,220,106147,0
2.5430216789245605,-1428,1496,237,106149,0
2.582728147506714,-1387,1478,227,106126,0
2.6227779388427734,-1340,1457,236,106130,0
2.6629552841186523,-1337,1456,205,106114,0
2.7027409076690674,-1358,1452,221,106144,0
2.743481159210205,-1391,1453,224,106116,0
2.782965898513794,-1362,1456,241,106102,0
2.822786331176758,-1395,1466,244,106093,0
2.8627216815948486,-1407,1471,258,106043,0
2.902717113494873,-1371,1488,245,106005,0
2.9431018829345703,-1399,1478,232,105972,0
2.9827048778533936,-1417,1475,235,105989,0
3.021719455718994,-1388,1459,250,106000,0
3.0619070529937744,-1376,1469,266,105994,0
3.101799964904785,-1374,1459,268,106007,0
3.1418850421905518,-1375,1458,270,106039,0
3.1817691326141357,-1358,1473,278,106072,0
3.221827745437622,-1354,1466,266,106050,0
3.261796474456787,-1350,1465,271,106021,0
3.3020668029785156,-1345,1460,270,105991,0
3.341763496398926,-1412,1460,251,105960,0
3.381749153137207,-1436,1470,239,105938,0
3.4217655658721924,-1433,1468,239,105974,0
3.4617793560028076,-1403,1463,235,105991,0
3.5009477138519287,-1367,1461,246,105991,0
3.5409505367279053,-1373,1463,259,105998,0
3.580732583999634,-1377,1457,256,106031,0
3.6207826137542725,-1395,1449,234,106035,0
3.66072940826416,-1396,1456,239,106049,0
3.7008111476898193,-1401,1464,246,106034,0
3.7407164573669434,-1377,1471,255,106034,0
3.7808289527893066,-1371,1459,288,105987,0
3.8208537101745605,-1391,1463,257,105934,0
3.8609066009521484,-1417,1454,233,105855,0
3.9008429050445557,-1413,1460,240,105850,0
3.9408934116363525,-1394,1463,258,105890,0
3.979703426361084,-1366,1446,249,105903,0
4.019959449768066,-1358,1448,252,105933,0
4.062273740768433,-1402,1462,280,105965,0
4.100572824478149,-1393,1461,250,105965,0
4.139906406402588,-1394,1464,262,105967,0
4.179870367050171,-1381,1465,257,105936,0
4.21979284286499,-1363,1460,253,105907,0
4.25995659828186,-1397,1454,240,105863,0
4.299840688705444,-1397,1462,263,105849,0
4.339836597442627,-1371,1453,266,105834,0
4.379826545715332,-1401,1453,272,105825,0
4.419860601425171,-1392,1446,252,105871,0
4.459004640579224,-1375,1455,267,105873,0
4.498776912689209,-1417,1448,265,105973,0
4.538830041885376,-1191,1398,446,106419,0
4.578742980957031,-1270,1482,438,106628,0
4.618767023086548,-1460,1460,308,106993,0
4.658816576004028,-1188,1503,470,107353,0
4.698788166046143,-1008,1506,630,107467,0
4.738815784454346,-729,1476,652,107225,0
4.778712272644043,-866,1401,788,106997,0
4.818882703781128,-875,1323,1127,106893,0
4.859400510787964,-935,1145,1611,106901,0
4.898786783218384,-814,996,1553,106829,0
4.938824415206909,-656,638,1452,106861,0
4.977963209152222,-707,545,1895,106970,0
5.0178985595703125,-503,429,1978,107036,0
5.057889223098755,-396,473,2120,107113,0
5.097804307937622,-229,336,2139,107138,0
5.137769460678101,-155,254,2284,107098,0
5.178005218505859,-196,352,2155,107035,0
5.217821836471558,-237,297,2032,106933,0
5.257795572280884,-227,273,1846,106813,0
5.297827959060669,-286,189,1824,106704,0
5.3377931118011475,-374,194,2158,106695,0
5.377996206283569,-183,206,2359,106667,0
5.41792893409729,-204,213,2233,106606,0
5.457819223403931,-229,235,2049,106617,0
5.496862411499023,-216,228,2053,106627,0
5.5368874073028564,-227,225,1988,106650,0
5.576991081237793,-259,244,1970,106686,0
5.616783618927002,-293,251,2001,106704,0
5.657090663909912,-240,259,1976,106734,0
5.696730852127075,-232,266,1951,106752,0
5.736722707748413,-216,250,1976,106716,0
5.7771220207214355,-184,229,1998,106689,0
5.816741228103638,-251,217,1998,106667,0
5.856729507446289,-258,228,2020,106669,0
5.896739482879639,-234,248,2008,106633,0
5.936713218688965,-193,257,2053,106644,0
5.97674298286438,-261,288,2068,106675,0
6.015761137008667,-287,260,2088,106697,0
6.055819511413574,-268,253,2081,106692,0
6.09578537940979,-277,258,2088,106693,0
6.135828971862793,-244,240,2048,106687,0
6.176314353942871,-269,223,1979,106637,0
6.215829133987427,-293,216,1946,106598,0
6.255821704864502,-291,229,1939,106543,0
6.2958173751831055,-286,246,1988,106533,0
6.335779428482056,-314,263,1998,106516,0
6.375869035720825,-302,271,2007,106486,0
6.4366419315338135,-321,273,2026,106493,0
6.455774545669556,-327,263,2057,106528,0
6.495792388916016,-342,250,2064,106620,0
6.534803152084351,-343,240,2014,106717,0
6.574791669845581,-307,250,2006,106759,0
6.614788293838501,-292,251,1975,106772,0
6.654799938201904,-338,251,1964,106728,0
6.694783926010132,-352,265,1978,106691,0
6.734846830368042,-333,248,2007,106694,0
6.774728536605835,-330,249,2030,106700,0
6.814744472503662,-348,252,2031,106652,0
6.854737281799316,-332,237,1999,106610,0
6.894724607467651,-303,237,2011,106596,0
6.934823751449585,-304,234,1990,106590,0
6.974782943725586,-340,247,1997,106586,0
7.01397180557251,-324,239,1999,106591,0
7.053819894790649,-325,255,2028,106610,0
7.093784809112549,-344,235,2006,106627,0
7.133813381195068,-332,233,2005,106633,0
7.17383599281311,-306,235,2024,106655,0
7.213766098022461,-319,233,2000,106639,0
7.253843784332275,-328,247,2005,106635,0
7.293937683105469,-301,229,2003,106633,0
7.33382773399353,-302,256,2000,106613,0
7.373790502548218,-316,248,2003,106590,0
7.413806676864624,-325,239,2005,106596,0
7.453808546066284,-329,249,2015,106603,0
7.493559122085571,-315,241,1998,106604,0
7.532800674438477,-333,251,1995,106605,0
7.572862863540649,-304,232,1995,106615,0
7.612747669219971,-314,248,1996,106602,0
7.652744770050049,-320,245,2003,106614,0
7.69310736656189,-309,228,2006,106552,0
7.732835054397583,-338,238,2010,106537,0
7.772753477096558,-332,232,2013,106519,0
7.812743186950684,-332,245,1984,106516,0
7.852742910385132,-320,241,2001,106489,0
7.892913341522217,-307,241,1994,106506,0
7.9327392578125,-335,253,1988,106517,0
7.971740007400513,-332,244,2019,106538,0
8.011935234069824,-326,260,2036,106533,0
8.051874876022339,-327,240,2030,106538,0
8.092031478881836,-328,231,2012,106553,0
8.131805181503296,-315,231,2026,106563,0
8.171787738800049,-302,230,1998,106550,0
8.211772680282593,-321,233,2003,106522,0
8.251765489578247,-308,231,2002,106479,0
8.291809558868408,-318,231,2001,106460,0
8.331862211227417,-334,237,2003,106442,0
8.371782302856445,-328,230,2004,106460,0
8.410875082015991,-336,247,2007,106467,0
8.450828552246094,-319,238,1999,106476,0
8.490760326385498,-316,219,1998,106469,0
8.530821084976196,-323,230,1988,106479,0
8.570810317993164,-282,236,1980,106481,0
8.610804080963135,-288,243,1976,106508,0
8.650832653045654,-322,234,2003,106483,0
8.690804958343506,-323,227,2033,106463,0
8.730891704559326,-333,219,2028,106482,0
8.77090072631836,-307,211,1987,106510,0
8.810766220092773,-295,236,2012,106504,0
8.850769996643066,-276,218,2009,106495,0
8.889803171157837,-296,232,1972,106504,0
8.929788827896118,-306,223,1992,106508,0
8.969809532165527,-314,234,1997,106513,0
9.010087966918945,-299,223,1993,106549,0
9.049841403961182,-316,219,2011,106582,0
9.089778423309326,-319,225,2014,106600,0
9.129791975021362,-310,219,1992,106592,0
9.169797658920288,-320,216,2011,106572,0
9.210102558135986,-301,233,2021,106543,0
9.249799489974976,-295,235,2014,106529,0
9.289797067642212,-317,244,2038,106535,0
9.329795837402344,-331,218,2024,106571,0
9.368768215179443,-333,209,2014,106609,0
9.40885305404663,-336,226,2005,106608,0
9.448805332183838,-312,230,1999,106572,0
9.488780498504639,-317,228,1959,106546,0
9.529245376586914,-348,215,1977,106528,0
9.568881034851074,-331,220,2002,106556,0
9.60890531539917,-313,213,2011,106528,0
9.648754835128784,-320,215,2016,106512,0
9.688761711120605,-320,205,2000,106495,0
9.728984594345093,-322,206,2023,106479,0
9.768782377243042,-309,213,2006,106477,0
9.808921813964844,-326,206,1989,106489,0
9.847792863845825,-324,212,2030,106521,0
9.887789964675903,-325,207,2026,106515,0
9.927953004837036,-331,220,2020,106520,0
9.967847347259521,-330,198,2028,106538,0
10.00782036781311,-339,202,2019,106530,0
10.04779052734375,-308,213,2014,106524,0
10.087836742401123,-297,188,1996,106523,0
10.127907037734985,-320,205,2008,106511,0
10.167773962020874,-315,210,2005,106472,0
10.207782506942749,-307,205,2005,106440,0
10.24780797958374,-311,195,1997,106445,0
10.287832021713257,-297,215,2018,106465,0
10.32694387435913,-331,223,1991,106448,0
10.36678409576416,-338,213,1990,106469,0
10.406796932220459,-327,209,1985,106458,0
10.446823120117188,-341,208,1948,106457,0
10.486764907836914,-331,205,2004,106452,0
10.527071952819824,-305,204,2023,106452,0
10.566798686981201,-324,213,2048,106422,0
10.606860637664795,-324,203,2046,106386,0
10.646807670593262,-341,197,2047,106355,0
10.686772108078003,-311,217,2033,106330,0
10.727092742919922,-328,212,1992,106315,0
10.766802787780762,-335,199,1976,106319,0
10.806817770004272,-334,204,2002,106336,0
10.845789432525635,-338,204,2005,106354,0
10.885894775390625,-354,198,1993,106344,0
10.926476955413818,-339,208,1994,106365,0
10.965798616409302,-332,210,1987,106385,0
11.005785942077637,-355,208,1989,106403,0
11.045791387557983,-366,218,1980,106413,0
11.08580207824707,-356,214,2023,106411,0
11.125805854797363,-375,175,2091,106401,0
11.165786743164062,-324,158,2029,106360,0
11.205809116363525,-270,204,2012,106344,0
11.24579644203186,-294,200,2069,106328,0
11.285805225372314,-322,205,2029,106353,0
11.32479476928711,-303,216,2026,106369,0
11.3648042678833,-277,232,1951,106360,0
11.404807567596436,-280,262,1924,106344,0
11.444855690002441,-332,254,1942,106358,0
11.484804391860962,-339,264,1990,106347,0
11.524845123291016,-329,250,2030,106365,0
11.564836025238037,-334,262,2012,106359,0
11.604803085327148,-306,277,1977,106339,0
11.644866943359375,-337,266,1986,106309,0
11.684776306152344,-338,268,1982,106308,0
11.724851369857788,-373,263,1995,106310,0
11.764943599700928,-359,247,2020,106342,0
11.80381965637207,-332,239,1994,106336,0
11.843864917755127,-319,232,1990,106360,0
11.883800745010376,-327,238,2023,106364,0
11.923888206481934,-307,228,2033,106404,0
11.96380877494812,-316,223,2041,106383,0
12.003803014755249,-305,211,2022,106396,0
12.04391074180603,-311,211,2018,106402,0
12.083966493606567,-299,204,2008,106381,0
12.124159336090088,-301,213,1993,106345,0
12.16383695602417,-327,213,1979,106335,0
12.203814506530762,-317,232,1995,106318,0
12.243881225585938,-313,235,2030,106346,0
12.28282642364502,-329,229,2016,106344,0
12.323023319244385,-318,232,2028,106364,0
12.362807989120483,-300,225,1990,106371,0
12.402790069580078,-306,225,2004,106367,0
12.443373203277588,-314,227,1996,106364,0
12.482802629470825,-330,215,1963,106384,0
12.522860765457153,-326,215,2005,106399,0
12.562896966934204,-309,197,2047,106400,0
12.602800130844116,-318,160,2004,106352,0
12.643072128295898,-306,194,2005,106348,0
12.68293571472168,-307,176,2038,106340,0
12.722846031188965,-272,194,2038,106343,0
12.763511419296265,-244,206,2028,106348,0
12.8018217086792,-246,226,2012,106357,0
12.841808319091797,-247,249,2036,106363,0
12.882423400878906,-247,229,2030,106378,0
12.921903371810913,-283,228,2004,106384,0
12.961937189102173,-300,221,2026,106400,0
13.00182294845581,-311,220,2033,106399,0
13.041853666305542,-294,200,2005,106386,0
13.081814289093018,-289,199,2009,106360,0
13.121804237365723,-253,181,2035,106347,0
13.162317752838135,-252,177,2074,106330,0
13.226003408432007,-258,178,2035,106346,0
13.242236137390137,-253,196,1996,106362,0
13.280848264694214,-279,217,1924,106393,0
13.320857048034668,-316,193,1948,106407,0
13.361031532287598,-302,211,1972,106398,0
13.400822877883911,-269,225,1983,106433,0
13.44080376625061,-262,214,2010,106428,0
13.480901956558228,-273,200,2052,106439,0
13.52081561088562,-254,204,2106,106411,0
13.56097149848938,-244,192,2043,106391,0
13.600794553756714,-266,192,2057,106356,0
13.640803098678589,-270,196,2038,106355,0
13.680846929550171,-268,203,2013,106339,0
13.720900774002075,-314,207,2007,106341,0
13.760012865066528,-330,200,2009,106362,0
13.799825668334961,-317,200,2018,106362,0
13.83981442451477,-292,207,2002,106366,0
13.879813194274902,-286,200,1985,106382,0
13.91980767250061,-307,207,2004,106389,0
13.95999550819397,-297,195,1997,106410,0
13.999820232391357,-286,189,2009,106411,0
14.039859294891357,-295,190,2019,106389,0
14.079833745956421,-302,198,2034,106369,0
14.119858980178833,-296,191,2005,106365,0
14.160109281539917,-268,189,2007,106357,0
14.1998291015625,-298,194,1995,106363,0
14.240465641021729,-297,194,2042,106350,0
14.279191732406616,-274,193,2045,106351,0
14.320290088653564,-301,189,2042,106376,0
14.358989238739014,-287,203,2045,106374,0
14.398873805999756,-295,196,2047,106409,0
14.439606428146362,-278,181,2015,106398,0
14.4793221950531,-291,197,1981,106420,0
14.51884412765503,-295,185,2003,106402,0
14.55904746055603,-302,184,1993,106372,0
14.59888482093811,-309,194,1992,106350,0
14.638818979263306,-324,187,1990,106356,0
14.67885971069336,-319,198,2009,106338,0
14.718860626220703,-335,211,2028,106359,0
14.757850885391235,-298,205,2031,106376,0
14.797838687896729,-286,209,2052,106375,0
14.83783483505249,-273,209,2045,106368,0
14.877813577651978,-289,199,2019,106378,0
14.917795419692993,-313,198,2027,106386,0
14.957871198654175,-321,201,2009,106383,0
14.99777364730835,-306,191,1987,106388,0
15.037803411483765,-312,209,1977,106370,1
15.077808618545532,-306,208,2014,106325,1
15.117785215377808,-312,194,1991,106304,1
15.157804012298584,-352,186,2036,106262,1
15.197863340377808,-350,164,2059,106249,1
15.237816095352173,-321,216,2046,106250,1
15.277519941329956,-310,242,2071,106256,1
15.316825866699219,-273,280,2066,106246,1
15.356820583343506,-303,305,2039,106240,1
15.396784543991089,-379,405,2076,106194,1
15.436893463134766,-409,623,2222,106116,1
15.477081537246704,-273,979,2444,105948,1
15.516869306564331,-195,1615,2303,105608,1
15.55679965019226,9,2915,2077,105134,1
15.596834182739258,697,7828,2382,105410,1
15.636821985244751,4490,4029,196,107684,1
15.676950693130493,460,-16500,-1904,108633,1
15.716865301132202,-14175,2087,11741,108517,1
15.755865573883057,3499,-6398,-2767,108798,1
15.795839548110962,903,-2150,-162,107570,1
15.835855484008789,-417,-529,1436,106916,1
15.876531839370728,-162,654,1535,107831,1
15.915873289108276,-896,1488,1630,108907,1
15.95585298538208,-991,2030,1779,109322,1
15.99603271484375,-954,1703,2279,109241,1
16.035876750946045,-1216,1855,1882,109093,1
16.076294422149658,-944,2310,1409,108729,1
16.115857124328613,-310,2938,2072,108337,1
16.15586805343628,-586,3767,1615,107776,1
16.196053743362427,-170,6342,1013,106942,1
16.23489737510681,1095,10234,2608,106203,1
16.274871587753296,6543,-2268,-5313,107790,1
16.31511950492859,-1283,-22640,4209,107745,1
16.35487675666809,-7951,-4273,4573,107606,1
16.39486026763916,-207,-4058,1255,107337,1
16.434863805770874,-444,-473,813,106202,1
16.474825382232666,73,1726,637,106485,1
16.514896392822266,-479,2751,1105,107197,1
16.554848194122314,-528,2945,1942,107415,1
16.595044374465942,-1164,2571,1530,107426,1
16.634851217269897,-1093,2593,1546,107513,1
16.674885988235474,-261,2933,1689,107552,1
16.715089559555054,-670,2874,1169,107348,1
16.75384497642517,-540,3968,892,107160,1
16.793872356414795,957,8950,470,106161,1
16.83397603034973,4825,6227,-389,106689,1
16.873860836029053,3767,-19685,111,107923,1
16.913866758346558,-28375,12751,9864,107275,1
16.95391058921814,3860,-5957,1758,106851,1
16.994106769561768,1406,-2205,-495,106202,1
17.03383469581604,-442,390,823,106511,1
17.073890924453735,-562,1459,1193,107057,1
17.11416006088257,-1391,2346,1190,107349,1
17.15388321876526,-1285,2345,903,107425,1
17.194660902023315,-1048,2599,2024,107327,1
17.232909440994263,-1388,3375,1490,107099,1
17.272947311401367,-749,3278,1406,107019,1
17.313002586364746,-1085,4451,2128,107216,1
17.35286593437195,-503,7826,479,107963,1
17.39290452003479,2327,10736,442,107034,1
17.43290686607361,8567,-5472,-3239,108830,1
17.472951889038086,-8679,-23737,6506,107470,1
17.512916326522827,-3870,-8379,1448,108000,1
17.552944660186768,-404,-3583,2169,107433,1
17.593210220336914,-861,-690,602,106787,1
17.632851600646973,-274,2397,-171,107515,1
17.672877311706543,-610,4262,1148,108184,1
17.711914777755737,-569,4562,855,108705,1
17.751879692077637,-774,3782,1163,108756,1
17.791855573654175,-655,3319,1762,108882,1
17.83187770843506,-564,2845,1165,108905,1
17.871864080429077,340,5059,1599,108729,1
17.911916971206665,3053,11827,3425,106571,1
17.95189070701599,9603,-2530,-5348,107661,1
17.991870164871216,-7445,-32153,6921,109448,1
18.03189754486084,-4374,-13469,5628,107554,1
18.071884632110596,-91,-4223,1584,106294,1
18.112178564071655,884,101,-168,105647,1
18.151881456375122,919,2740,575,106445,1
18.191834211349487,313,3691,886,106891,1
18.230833053588867,-579,4164,586,107515,1
18.270871877670288,-770,3463,1502,107628,1
18.311039447784424,-157,2964,1740,107635,1
18.350963830947876,-254,3006,1100,108014,1
18.39089298248291,243,3012,765,108767,1
18.430941343307495,590,5131,506,109943,1
18.470972537994385,4755,11739,1939,107243,1
18.510910272598267,12941,-5981,-2412,107397,1
18.55093264579773,-10532,-32768,8034,107808,1
18.590880870819092,-1977,-15829,4795,105323,1
18.63090705871582,-808,-4070,1584,104643,1
18.670852422714233,708,570,-124,105357,1
18.71030855178833,732,3298,823,107348,1
18.749874114990234,-4,4253,1349,108227,1
18.789942979812622,14,4919,1198,108278,1
18.829871654510498,1388,4714,1956,108024,1
18.869872570037842,-261,5368,967,108474,1
18.91012692451477,881,10553,-139,107465,1
18.949862718582153,9311,5453,1165,106443,1
18.989874601364136,1845,-31364,6544,108808,1
19.030215740203857,-28590,6984,-1511,105862,1
19.069873094558716,307,-4187,5243,105219,1
19.1102192401886,1733,-1914,191,104887,1
19.149869441986084,1071,1869,1179,105605,1
19.188872814178467,581,3863,534,106317,1
19.22894287109375,174,5184,1719,106641,1
19.2688889503479,831,4589,2879,106725,1
19.309147357940674,488,4109,1973,106830,1
19.380693674087524,-69,5124,1271,107531,1
19.38895297050476,202,8987,2346,105852,1
19.428908824920654,9674,5385,-114,107232,1
19.468971014022827,5579,-21615,483,100635,1
19.50899910926819,-32768,26474,6003,109382,1
19.54892587661743,5032,4976,535,108208,1
19.589306592941284,-2044,-708,843,107282,1
19.62891697883606,-3340,-2357,3484,108094,1
19.66897439956665,-1561,-3216,2397,108331,1
19.707903385162354,-1210,-1373,922,108479,1
19.747925758361816,-886,1047,1521,108625,1
19.787894248962402,-543,4126,1389,108556,1
19.82809615135193,-78,5323,209,108459,1
19.867868900299072,816,6087,1780,108430,1
19.907865047454834,467,5575,1265,108131,1
19.947920560836792,-424,9241,-308,108125,1
19.987935066223145,5893,8053,-2050,109669,1
20.028024435043335,6420,-14705,2566,98529,1
20.067904472351074,-32768,-6061,5389,94864,1
20.107978582382202,18678,-7584,2505,104992,1
20.147968769073486,-2864,-3043,1802,104323,1
20.18793511390686,-4063,-3843,115,104424,1
20.22697687149048,-540,-760,559,104870,1
20.266868114471436,-910,1888,107,105355,1
20.30688214302063,-297,4194,1727,105536,1
20.3468759059906,-322,5061,814,105479,1
20.386895656585693,268,4610,1595,105556,1
20.42694592475891,-565,4923,1790,105577,1
20.466861486434937,-600,4148,205,105283,1
20.506901502609253,-1143,5561,-775,105302,1
20.546872854232788,-146,7570,709,105716,1
20.5868923664093,14080,-7178,3879,101463,1
20.62691354751587,-19527,-32768,4876,67277,1
20.66692590713501,18515,-25360,373,106118,1
20.70686984062195,2903,-16,3370,105979,1
20.746005535125732,-5490,-1522,247,103533,1
20.78598976135254,-3711,-2833,1205,102158,1
20.82609462738037,-2431,-2466,1028,102139,1
20.865928411483765,-1932,-1010,722,100628,1
20.905896186828613,-939,1465,887,99875,1
20.945859670639038,111,3231,532,100110,1
20.985875129699707,-509,5406,886,100822,1
21.025877475738525,-8,5262,1124,103023,1
21.06588315963745,-197,4736,606,104944,1
21.105921268463135,-894,5494,-1365,106222,1
21.146151781082153,223,9245,-473,106329,1
21.185980558395386,5003,6619,-518,106025,1
21.224944353103638,4782,-23991,3710,76799,1
21.26491355895996,-32768,19055,835,94397,1
21.304909706115723,12211,-550,785,105666,1
21.34550189971924,-3218,-1052,2306,104936,1
21.384934425354004,-3884,-3128,1978,104120,1
21.424916744232178,-2427,-3437,1193,103634,1
21.464937448501587,-1592,-1723,608,104901,1
21.50489568710327,-1291,998,995,104676,1
21.545013189315796,-697,4319,684,104124,1
21.58489680290222,-838,5396,1156,103373,1
21.624911785125732,330,5588,1572,102508,1
21.664899349212646,732,4351,1563,103539,1
21.704848766326904,2,4450,94,104380,1
21.74428701400757,293,9548,2090,105940,1
21.783987998962402,9143,5759,-852,106135,1
21.82394003868103,6040,-20548,4165,68600,1
21.863945245742798,-32768,19738,4222,61919,1
21.903972387313843,3631,-4312,2893,88858,1
21.9439640045166,1287,-2745,430,85380,1
21.9839026927948,-1211,-1242,970,80933,1
22.023884296417236,-940,997,947,79555,1
22.063907623291016,-268,2672,1355,78748,1
22.10393977165222,-197,4309,803,76245,1
22.143878936767578,136,4236,936,74942,1
22.183886528015137,-83,3964,955,73356,1
22.22291088104248,-830,3791,416,72188,1
22.26312518119812,-965,3825,-143,73306,1
22.302942276000977,51,7236,1267,78679,1
22.34324312210083,3150,9212,-283,90055,1
22.383188486099243,11129,-7377,-2219,75198,1
22.42298984527588,-10806,-32768,15018,12735,1
22.463070392608643,14842,-25615,-5343,23039,1
22.502927780151367,1983,-1591,1273,21249,1
22.543291091918945,-2113,-1464,1061,18054,1
22.58292317390442,-1357,-1202,1234,16729,1
22.622910976409912,-1316,226,2029,15958,1
22.662919282913208,-620,1677,1489,16296,1
22.702928066253662,-1323,2907,1443,16481,1
22.74206566810608,-610,4477,1890,17425,1
22.781908750534058,-1480,4456,480,17962,1
22.821953773498535,-481,4478,952,18800,1
22.86190152168274,-1087,5309,71,20487,1
22.901904821395874,372,8890,605,22921,1
22.941896438598633,5951,5380,-1303,20865,1
22.98190140724182,7635,-19157,-46,4616,1
23.021986961364746,-32768,-739,18131,8363,1
23.061941862106323,13372,-7824,-2920,15587,1
23.101954221725464,344,-2482,943,12668,1
23.141987085342407,-2830,-1668,2811,11088,1
23.18192148208618,188,-315,802,11081,1
23.22174334526062,644,1398,2319,11067,1
23.260931491851807,-481,2644,1336,11355,1
23.300920724868774,502,3360,1798,12738,1
23.341137170791626,-520,4434,1207,14889,1
23.3809335231781,301,4798,861,15723,1
23.42094087600708,941,5005,1725,15430,1
23.460942268371582,1508,7147,1022,16830,1
23.500986099243164,3723,10424,-1170,21237,1
23.541161060333252,8490,-9591,-5932,10679,1
23.580955505371094,-9205,-24734,21228,1142,1
23.621198415756226,7555,-20243,-10312,2607,1
23.66123628616333,2541,-2581,-1170,2667,1
23.6998872756958,1013,-51,791,2759,1
23.73997950553894,589,398,941,2821,1
23.779937982559204,734,1266,896,3024,1
23.819907903671265,652,2098,606,3495,1
23.860180139541626,758,2141,902,3962,1
23.89988899230957,574,2371,1093,4560,1
23.939907550811768,-163,2453,134,5759,1
23.980119943618774,-118,3534,-374,7770,1
24.019981384277344,1024,8944,-526,10827,1
24.060241222381592,68,12632,-2199,11001,1
24.100066661834717,11647,-3793,-7522,4045,1
24.139963150024414,-1025,-30454,7993,712,1
24.180068254470825,-10014,-6408,4577,1060,1
24.21902060508728,1478,-510,2681,1270,1
24.25914740562439,805,-1416,184,1261,1
24.29895567893982,-303,-843,1077,1352,1
24.338953971862793,-543,646,1053,1623,1
24.37891697883606,-173,1557,1701,1993,1
24.418949127197266,-502,2864,1850,2398,1
24.459179878234863,603,3300,2318,2683,1
24.498979330062866,-367,3795,1559,2918,1
24.538926362991333,259,3466,760,3212,1
24.57896637916565,-117,3737,630,3619,1
24.618910312652588,-75,4199,-879,4485,1
24.65924882888794,1023,9177,308,4579,1
24.697967767715454,8089,5865,-4759,3218,1
24.737961292266846,5793,-22240,2581,639,1
24.777981281280518,-32189,9627,21315,577,1
24.817993640899658,5884,-5876,448,566,1
24.8579683303833,2487,-2257,-478,582,1
24.897945880889893,266,242,1161,606,1
24.937968730926514,844,1436,1459,608,1
24.97816252708435,311,2093,1161,605,1
25.017897129058838,509,2644,1305,630,1
25.057888746261597,679,2456,1898,636,1
25.097923755645752,-164,2604,1308,683,1
25.137987852096558,375,2204,1633,737,1
25.17727565765381,-313,2046,1363,800,1
25.216980695724487,-350,2171,529,936,1
25.256937742233276,-451,4055,-150,1125,1
25.296992778778076,-724,10269,-645,1416,1
25.33699631690979,4753,8327,-3026,1627,1
25.37759280204773,7604,-14804,1494,777,1
25.416998624801636,-32768,-13836,23007,724,1
25.45699143409729,11123,-11482,-6576,713,1
25.497029304504395,1956,-2894,-953,719,1
25.53687286376953,258,189,650,681,1
25.577141523361206,1153,426,358,776,1
25.61692786216736,516,1571,1150,7943,1
25.65593910217285,670,2145,581,11360,1
25.696282863616943,1209,1880,1385,9870,1
25.735923528671265,73,1872,2482,64010,1
25.776079177856445,576,1206,1217,84051,1
25.81594157218933,-364,1903,1834,87367,1
25.856024503707886,-371,2869,552,98277,1
25.89599061012268,377,6415,900,106789,1
25.93600368499756,-1125,9834,1669,109978,1
25.976112604141235,2299,7989,-3138,111645,1
26.015955209732056,6557,-8491,-6760,110533,1
26.055952310562134,-457,-24721,7236,94292,1
26.096210956573486,-7429,-1438,8442,102340,1
26.13498568534851,-537,-1847,630,101998,1
26.174963235855103,205,-2009,1837,101256,1
26.215039253234863,-704,-26,1301,101618,1
26.254950046539307,852,1913,1681,102850,1
26.294981956481934,431,3323,1514,103998,1
26.33494257926941,671,3623,1407,104863,1
26.403812646865845,1151,3608,1936,105546,1
26.414971351623535,144,3484,1166,105969,1
26.45499300956726,-74,3380,275,106169,1
26.495007514953613,-450,5622,1032,106248,1
26.534944772720337,2907,9734,31,106637,1
26.57498025894165,6755,-9094,-9021,105731,1
26.61398720741272,-8220,-20387,14173,97859,1
26.653976678848267,1508,-11997,-623,106025,1
26.694194793701172,458,-1871,1390,105897,1
26.734082460403442,-83,-1073,570,105414,1
26.774049997329712,-194,87,1686,105211,1
26.81398296356201,175,1809,1947,105574,1
26.853989124298096,-972,3624,1252,105920,1
26.894202947616577,497,3337,687,106040,1
26.93393850326538,264,3677,1000,106087,1
26.97392249107361,3,3139,988,106269,1
27.01399040222168,-801,3118,431,106604,1
27.053977251052856,-842,3831,1116,106819,1
27.093103885650635,-1036,7374,-112,106560,1
27.132968425750732,2618,9752,-540,106871,1
27.17297673225403,9735,-12553,-4568,107929,1
27.213006019592285,-15482,-20442,12534,105386,1
27.253009557724,6495,-17161,-3104,107879,1
27.293102025985718,1977,-1801,2288,108384,1
27.3329598903656,747,-328,77,108584,1
27.37294912338257,472,704,1325,108581,1
27.41298532485962,169,1595,1336,108502,1
27.452956914901733,-755,2370,1584,108314,1
27.493306398391724,-282,2066,1963,108099,1
27.532971620559692,-1035,2739,1973,108003,1
27.57203483581543,-976,2646,1700,107991,1
27.611971616744995,-669,3289,1559,108133,1
27.651975393295288,-154,3876,1162,108215,1
27.69203019142151,-1128,6218,-34,108096,1
27.731985569000244,1705,10059,455,107968,1
27.77198600769043,9933,234,-5012,107957,1
27.81196689605713,3349,-23917,2698,95484,1
27.851998805999756,-27156,11742,18962,105582,1
27.892035722732544,3543,-4418,2860,106817,1
27.93200945854187,1284,-3846,-2265,106536,1
27.97196936607361,66,-516,-12,106760,1
28.011993885040283,1010,1410,-606,107374,1
28.05097770690918,12,4024,258,107627,1
28.090986728668213,-49,5390,991,107726,1
28.131007432937622,1335,5966,2068,107734,1
28.170980215072632,-264,4917,2784,107815,1
28.211248874664307,-1376,4696,1585,107848,1
28.25108504295349,337,7816,3071,107748,1
28.29120111465454,7499,1889,-1635,107821,1
28.33101487159729,1798,-23072,1377,108415,1
28.3710036277771,-19974,2269,10360,108258,1
28.41123867034912,5811,-9396,1144,107458,1
28.450971126556396,984,-2763,-85,107033,1
28.49099111557007,293,1994,1039,106969,1
28.52997589111328,1250,4663,2170,107205,1
28.57002019882202,-167,5061,1620,107407,1
28.61053991317749,728,4889,1865,107437,1
28.649970293045044,621,4082,1932,107452,1
28.68995451927185,-28,2896,255,107392,1
28.72999858856201,-619,5160,908,107295,1
28.770037174224854,1067,8073,3200,106987,1
28.81027865409851,7645,-3272,-3160,107776,1
28.850035905838013,-2141,-23366,5028,108374,1
28.890088081359863,-11836,-1553,5089,108338,1
28.930015563964844,1428,-7040,1394,107936,1
28.970088005065918,1839,-664,168,107243,1
29.00895643234253,584,4168,-103,107114,1
29.049131631851196,1481,4940,2373,107335,1
29.08897113800049,740,6585,3808,107429,1
29.12917399406433,-9,4998,2481,107412,1
29.168987274169922,-175,5253,581,107418,1
29.209024667739868,358,9018,1467,107147,1
29.249027013778687,10452,-228,-3506,108149,1
29.289029121398926,-1170,-22592,2429,108951,1
29.329158067703247,-17625,-789,10621,108802,1
29.369017601013184,4506,-10794,537,108228,1
29.408982753753662,661,-3508,-131,107326,1
29.449039936065674,1982,2868,-374,107227,1
29.487985849380493,2317,5865,163,107460,1
29.528050899505615,2956,8254,2162,107492,1
29.56800150871277,1792,7675,3572,107610,1
29.60799241065979,-183,7615,154,107509,1
29.64801836013794,5031,3047,-1454,107363,1
29.687992334365845,3982,-18252,1454,108321,1
29.728280544281006,-14760,-6125,8062,108250,1
29.768020153045654,2112,-9080,2693,107875,1
29.80799674987793,338,-3106,673,107165,1
29.847950220108032,6,3428,799,106874,1
29.887965202331543,542,5370,961,106900,1
29.927325010299683,1584,6882,2495,106944,1
29.96713089942932,751,7445,3964,107078,1
30.00707221031189,-225,7633,1042,106915,1
30.047078132629395,4063,3282,-3202,107600,1
30.087010145187378,4942,-20069,427,108157,1
30.12710428237915,-19063,-3811,15114,108884,1
30.167004585266113,9163,-10307,-569,108381,1
30.207107067108154,722,-2808,-535,107865,1
30.246976613998413,34,1464,539,107787,1
30.28698492050171,321,3392,1825,107805,1
30.327183485031128,1397,4301,2015,107818,1
30.36704397201538,1045,5160,2219,107784,1
30.406001567840576,115,5476,1684,107716,1
30.446022033691406,-1230,7929,243,107702,1
30.486006259918213,2006,7527,-1632,107451,1
30.526045083999634,11524,-14222,-3480,98606,1
30.56601357460022,-18121,-16226,12127,91400,1
30.606006145477295,7166,-19364,90,106936,1
30.646007776260376,-144,-3249,1733,107415,1
30.685993432998657,1485,352,500,107332,1
30.72613549232483,714,3622,2324,107385,1
30.765993356704712,918,4646,2369,107611,1
30.806057453155518,1053,5393,2880,107544,1
30.845983266830444,717,4443,2198,107879,1
30.885989904403687,-446,4693,171,108357,1
30.92499017715454,81,8154,673,108419,1
30.965087890625,10214,-1267,-1838,108231,1
31.005070209503174,-3260,-30737,3036,93926,1
31.045437574386597,-10617,-1146,13293,105173,1
31.08503746986389,2425,-5306,1570,107195,1
31.125043392181396,-455,-1576,-1818,107242,1
31.16503119468689,954,1679,-129,107290,1
31.205007314682007,1475,3867,353,107459,1
31.24508237838745,185,6077,1359,107556,1
31.285014629364014,772,5973,2624,107687,1
31.325029850006104,-1114,5949,2062,107781,1
31.365058183670044,-36,7002,561,107502,1
31.40406560897827,4482,3394,1697,107273,1
31.444262504577637,4778,-19250,-2759,109023,1
31.484070301055908,-21137,-1602,14242,110873,1
31.524091005325317,9026,-12923,-1128,108837,1
31.564080715179443,-1626,-2875,-146,108814,1
31.603991746902466,-95,775,-817,108575,1
31.6441707611084,-173,4187,1128,108033,1
31.684043645858765,-1251,6523,2589,108087,1
31.724156618118286,-30,6756,4795,108317,1
31.76407766342163,-934,8360,3295,108323,1
31.804011583328247,3932,6827,541,107633,1
31.84409761428833,7486,-13620,-4403,108799,1
31.88310170173645,-17849,-14655,7538,109995,1
31.923024892807007,6019,-11476,4076,108460,1
31.96318554878235,-749,-4745,-383,107935,1
32.00301456451416,506,-79,367,107920,1
32.043394565582275,-172,2896,618,108023,1
32.08305048942566,700,4339,1625,107964,1
32.1230583190918,38,6631,2625,107970,1
32.16301870346069,-397,6341,2127,107891,1
32.20307993888855,-106,10642,862,107225,1
32.24312424659729,9737,-1301,-3201,108302,1
32.28304839134216,-1652,-31835,2307,108499,1
32.32305693626404,-15219,1496,12911,106623,1
32.36205267906189,2998,-5763,1028,106971,1
32.40206336975098,1161,-958,-2049,106421,1
32.44202256202698,861,2425,316,106312,1
32.4820442199707,638,3794,1780,106543,1
32.522021770477295,-217,4506,1895,106931,1
32.56205344200134,-589,5244,2979,107194,1
32.60209631919861,-513,5521,1628,107291,1
32.642085313797,-214,7991,333,106364,1
32.682055711746216,5091,-5437,-3903,107584,1
32.72203850746155,18,-16533,6110,108545,1
32.76210260391235,-3633,-56,12021,108075,1
32.80204510688782,2310,-4332,-101,107569,1
32.84106707572937,1282,1370,-822,107417,1
32.881038427352905,1754,2366,466,107420,1
32.92107129096985,1208,2198,240,107452,1
32.96101140975952,994,2087,932,107547,1
33.00104236602783,762,1958,2020,107661,1
33.041049003601074,428,1607,1865,107664,1
33.08102869987488,554,1372,1701,107672,1
33.12104368209839,587,1394,1810,107685,1
33.16105914115906,518,1176,1625,107724,1
33.20102024078369,566,1274,1887,107630,1
33.24102306365967,1255,3170,1361,107678,1
33.33085799217224,-512,8994,1767,107811,1
33.332298278808594,3709,6979,1376,107967,1
33.3602135181427,6929,-8990,4533,96801,1
33.40010118484497,-27976,-20002,15299,95276,1
33.44119191169739,10154,-20615,-7008,106984,1
33.480278968811035,181,-2364,3162,107118,1
33.52005934715271,458,-761,-403,106681,1
33.560160398483276,738,3525,874,106656,1
33.60005784034729,324,5688,380,106829,1
33.640079736709595,2058,7328,2029,106850,1
33.68001437187195,629,7009,3172,106899,1
33.720032930374146,1229,6866,135,107176,1
33.7590651512146,6615,-2558,-5244,108898,1
33.79906439781189,819,-27825,5100,105139,1
33.83905482292175,-15911,-5117,2780,108267,1
33.8791708946228,-1454,-3064,5096,108465,1
33.91907811164856,1325,-2088,-697,108015,1
33.95911979675293,1049,2611,864,107509,1
33.999032497406006,3673,5057,596,107336,1
34.039042711257935,1831,9517,3201,107377,1
34.0790319442749,1196,7060,873,107132,1
34.119049310684204,2369,5499,-360,107127,1
34.15907597541809,2484,-4130,-860,107635,1
34.1990864276886,912,-18956,3373,108652,1
34.23808979988098,-22691,3693,7042,108524,1
34.278196811676025,5664,-10254,1439,107348,1
34.31805229187012,3408,-2853,-82,107042,1
34.35808825492859,1087,4237,-897,107106,1
34.39802575111389,1041,7975,1085,107202,1
34.43803334236145,807,9904,3882,107116,1
34.478108644485474,-2330,7512,1557,106980,1
34.518146276474,2587,5869,-1988,107115,1
34.55808448791504,6360,-2722,-1402,108195,1
34.59807014465332,2392,-25150,3699,109245,1
34.63835597038269,-20461,3901,7856,108978,1
34.678138256073,2898,-7340,3171,108062,1
34.717063188552856,2176,-3359,-731,107600,1
34.757057189941406,1290,2782,-199,107403,1
34.797104358673096,3745,7334,-1317,107507,1
34.83712887763977,1865,11491,4319,107500,1
34.877376079559326,494,7989,816,107506,1
34.917062759399414,3310,5309,-510,107940,1
34.95703434944153,3511,-4712,-67,108720,1
34.99708271026611,-2368,-22780,3598,109320,1
35.037633180618286,-13422,-5105,2401,108806,1
35.07734441757202,-2865,-5490,3871,108202,1
35.117095947265625,2202,-1458,-294,107673,1
35.15711736679077,1297,4925,-8,107513,1
35.19623112678528,2525,8302,1398,107514,1
35.23610162734985,1582,9074,4475,107549,1
35.276029109954834,-7,6707,2349,107455,1
35.31610298156738,1521,3616,280,107481,1
35.356062173843384,878,-3274,-702,107943,1
35.3960702419281,1293,-15694,3712,108267,1
35.436091899871826,-20732,1835,-4093,108086,1
35.47616243362427,6500,-8294,5192,107804,1
35.51610088348389,-843,-3064,922,107427,1
35.55603218078613,904,3504,1003,107081,1
35.596081495285034,-75,5689,1230,107049,1
35.63603663444519,805,8824,3357,107064,1
35.675039768218994,1336,6632,1347,107092,1
35.71506357192993,1053,5924,-1154,107298,1
35.755109786987305,3663,4414,-1205,108097,1
35.79510736465454,2913,-5337,2495,108452,1
35.835100173950195,-3858,-18520,2757,108625,1
35.875149965286255,-9075,-6568,-232,108553,1
35.91509675979614,-83,-6783,2554,108517,1
35.95504021644592,1441,-241,799,107977,1
35.99517583847046,219,4913,1202,107575,1
36.03507876396179,120,5882,2752,107326,1
36.07515621185303,-111,6668,2685,107248,1
36.11516761779785,-597,4883,2670,107223,1
36.15407681465149,-672,3880,-72,107197,1
36.19423198699951,-1286,6170,5,107271,1
36.2340931892395,1806,3954,1893,107833,1
36.27412676811218,6015,-8656,4103,108262,1
36.31409454345703,-15611,-13249,-830,108029,1
36.35407066345215,1559,-10829,3102,108301,1
36.39407014846802,9,-5062,1598,108093,1
36.43439483642578,450,1362,1267,107579,1
36.47410535812378,1075,4314,851,107359,1
36.51405358314514,1009,6832,1388,107390,1
36.554046392440796,653,7512,2405,107398,1
36.59426307678223,327,5110,423,107364,1
36.63337469100952,-114,5607,-1200,107425,1
36.67314267158508,1539,4917,-296,107780,1
36.713101387023926,7758,-5875,4075,108629,1
36.75317144393921,-8795,-22617,2378,109437,1
36.79419469833374,-3031,-14560,167,107044,1
36.83309626579285,-2003,-3181,3137,107686,1
36.87309455871582,2036,-1885,1173,107424,1
36.91306710243225,844,1862,1221,107279,1
36.95306396484375,650,3777,893,107299,1
36.99307870864868,204,4440,1909,107305,1
37.03304839134216,65,5502,2267,107270,1
37.07206654548645,-236,5115,1606,107209,1
37.11211633682251,-164,5383,1060,107209,1
37.15204882621765,-39,6114,1716,107569,1
37.19212770462036,3917,643,1192,108376,1
37.2321662902832,2515,-13840,2732,109206,1
37.272175550460815,-32657,2295,-3801,109069,1
37.31210803985596,6967,-7699,6112,108083,1
37.3520884513855,1733,-3087,172,107986,1
37.39210796356201,641,1380,401,107593,1
37.432095766067505,192,3236,-60,107446,1
37.472113609313965,-711,4164,635,107417,1
37.51215982437134,-1330,3932,1465,107415,1
37.551087379455566,-2000,2842,849,107344,1
37.59108901023865,-2190,2383,-729,107326,1
37.63107514381409,-2166,2521,-480,107360,1
37.671149253845215,-1223,2980,12,107467,1
37.71131253242493,-486,4172,-701,107487,1
37.751097202301025,-216,4558,-618,107537,1
37.791163206100464,1593,7844,1423,107572,1
37.83113098144531,9130,2565,2468,108787,1
37.87110185623169,3927,-19234,3686,109509,1
37.91107535362244,-32768,4815,-3567,109179,1
37.951088190078735,42,-7906,5240,109460,1
37.991076707839966,2438,-1845,2342,108662,1
38.03007888793945,2040,2931,991,107848,1
38.070056438446045,3277,7510,1268,107603,1
38.11022186279297,968,11408,3289,107457,1
38.15005826950073,-497,6470,429,107425,1
38.19005584716797,3172,5128,51,107465,1
38.23006987571716,3168,-3818,1274,108068,1
38.270118951797485,-1208,-21132,4736,108726,1
38.310561180114746,-28783,4657,-905,108680,1
38.3501501083374,6839,-10165,5253,107355,1
38.390177488327026,-1528,-2764,172,107531,1
38.43004846572876,1417,3142,151,107455,1
38.470226764678955,2304,7818,2079,107474,1
38.509066343307495,2386,8982,5290,107608,1
38.549314975738525,738,7902,5672,107531,1
38.589096546173096,3176,5790,1255,107807,1
38.629159688949585,4931,-4620,-411,108597,1
38.66913986206055,-889,-24475,5645,108857,1
38.709436893463135,-14469,-8912,-4903,108491,1
38.74918556213379,-1752,-5784,2135,108417,1
38.789111375808716,3631,-1323,902,107515,1
38.82909107208252,1470,3496,185,107092,1
38.869428396224976,814,6872,2196,107019,1
38.90912938117981,1897,8229,4929,107012,1
38.949150800704956,-87,5991,3548,106830,1
38.98806643486023,-33,7203,1569,106930,1
39.02806615829468,2843,3736,333,107151,1
39.06817698478699,5247,-9558,3675,108239,1
39.10811924934387,-18763,-17145,2234,108607,1
39.148117542266846,9166,-12158,3793,108360,1
39.18806052207947,166,-3649,809,108108,1
39.22855472564697,712,343,316,107577,1
39.26809287071228,-394,3209,208,107474,1
39.308119773864746,-1316,4531,2568,107678,1
39.348106384277344,-1643,3791,1452,107569,1
39.38810849189758,-3851,2434,-283,107625,1
39.42735409736633,-2919,2967,689,107684,1
39.46710014343262,-2200,3276,-267,107596,1
39.50710415840149,-1573,2463,372,107538,1
39.54709529876709,-1124,3109,-513,107452,1
39.58712935447693,-1416,5068,-2185,107461,1
39.62758779525757,-347,7557,306,107546,1
39.66707801818848,7827,3663,2373,108135,1
39.70719885826111,4133,-13527,5871,108451,1
39.747172832489014,-25614,-9974,-1638,107692,1
39.787126779556274,6202,-8953,4883,107886,1
39.82735896110535,98,-3192,1554,107791,1
39.867077112197876,137,906,1321,107458,1
39.90612769126892,-433,3751,971,107350,1
39.94610023498535,-1046,4128,1082,107328,1
39.986183166503906,-2472,2952,-155,107311,1
40.026090145111084,-4066,2304,-499,107321,1
40.06609511375427,-3277,2892,-17,107335,1
40.10610556602478,-2881,2491,-133,107337,1
40.14614248275757,-2136,1932,-192,107330,1
40.18613648414612,-1245,2297,-743,107308,1
40.22633504867554,-1630,2119,-1175,107288,1
40.31080198287964,-1145,2444,-914,107260,1
40.3117196559906,-189,2947,-445,107302,1
40.346096992492676,780,5058,725,107378,1
40.38517951965332,4315,5950,4738,107368,1
40.42517614364624,5014,-4857,2290,107635,1
40.46518397331238,-4847,-22562,2822,107422,1
40.50580954551697,-5075,-9198,-707,108071,1
40.54511761665344,401,-5811,2216,107994,1
40.585235357284546,637,1665,1943,107404,1
40.62509822845459,128,6753,1769,107194,1
40.66515040397644,1362,9851,3376,107188,1
40.70511531829834,-400,7288,4369,107029,1
40.7452597618103,562,5116,1004,106942,1
40.78514742851257,5032,-974,-452,107732,1
40.82412505149841,1370,-11024,4447,108728,1
40.86421775817871,-21571,-12120,-3840,108034,1
40.90426778793335,6170,-7198,3789,108437,1
40.94425582885742,-1469,-4245,914,108347,1
40.98411774635315,1124,-481,1297,107762,1
41.024120569229126,369,4415,1518,107328,1
41.06414031982422,-904,7402,268,107189,1
41.10414791107178,-2980,10674,4876,107188,1
41.14427304267883,295,6812,1417,107080,1
41.18419027328491,4918,1709,226,107672,1
41.22419595718384,1818,-7326,2208,108423,1
41.264225482940674,-10702,-13906,4109,107583,1
41.30314064025879,-206,-10113,-128,107127,1
41.34321427345276,-1402,-3533,2034,107226,1
41.383116245269775,887,-1195,571,106987,1
41.423147201538086,12,3027,754,106944,1
41.46312713623047,-1388,5491,-704,106935,1
41.503100633621216,-2382,5097,714,106922,1
41.54317760467529,-1655,4043,633,106880,1
41.583134174346924,-1503,2940,-304,106801,1
41.623154401779175,-1364,2166,-714,106787,1
41.663124799728394,-1562,2524,-865,106820,1
41.70310068130493,-1085,3947,61,106899,1
41.742103576660156,-881,5828,1510,106984,1
41.78220057487488,5244,1899,2637,107188,1
41.82239246368408,1453,-11349,3551,107620,1
41.86226940155029,-19596,-8313,-883,106990,1
41.90216779708862,4147,-9080,2874,106910,1
41.942198276519775,-304,-3953,1303,106721,1
41.98218059539795,-512,547,1656,106601,1
42.022114515304565,-914,2582,2333,106628,1
42.062187910079956,-1024,3926,1464,106614,1
42.10214066505432,-1509,4927,1253,106608,1
42.14216923713684,-2242,4050,804,106600,1
42.18212890625,-1714,3667,188,106600,1
42.22120976448059,-1226,3513,-514,106622,1
42.26184129714966,-1698,4287,-1398,106706,1
42.30111885070801,-1636,7041,801,107212,1
42.3411328792572,7131,2539,4265,108626,1
42.38121223449707,1302,-15539,3478,108960,1
42.4211859703064,-29759,-1799,-9396,108345,1
42.461358308792114,5643,-7614,4424,108075,1
42.50112175941467,1018,-3607,564,108061,1
42.54108715057373,3,255,561,107728,1
42.581191062927246,-204,1977,626,107405,1
42.62115669250488,-551,3635,659,107312,1
42.66026854515076,-1453,4052,696,107277,1
42.700190782547,-2024,3173,-596,107252,1
42.74018049240112,-2135,4254,181,107263,1
42.78014016151428,-1459,4689,-104,107296,1
42.82017421722412,-1036,5551,-15,107278,1
42.86065149307251,1225,6910,493,107741,1
42.90015912055969,5381,-912,2664,109035,1
42.94017839431763,347,-15085,2578,108590,1
42.98033881187439,-27155,4749,-7606,107679,1
43.02022743225098,2400,-6374,2666,107843,1
43.06035351753235,436,-4281,526,107817,1
43.10023856163025,-223,-213,312,107436,1
43.13914084434509,5,2489,261,107133,1
43.1791558265686,-1355,5405,-261,106950,1
43.21925115585327,-1291,6025,1584,106923,1
43.25910973548889,-665,5317,3212,106856,1
43.29912257194519,-678,6083,1623,106842,1
43.33924698829651,2805,5452,775,107511,1
43.37916660308838,4364,-4888,2275,108502,1
43.4193377494812,-4996,-20392,5445,109066,1
43.459179401397705,3429,-13998,-2051,108577,1
43.49917149543762,-1974,-4036,739,108662,1
43.53919744491577,-378,-2922,919,108190,1
43.57811260223389,375,-741,604,107687,1
43.61815810203552,1020,1768,471,107421,1
43.65809202194214,625,4800,158,107354,1
43.698169469833374,1075,7621,2476,107451,1
43.738136529922485,-293,7602,4913,107517,1
43.77830362319946,-201,5581,3155,107176,1
43.818177223205566,1258,375,-107,107177,1
43.85907864570618,1617,-5280,2128,107341,1
43.89817762374878,-2984,-14147,4861,107293,1
43.93822979927063,-7701,-4905,-6303,106843,1
43.97823095321655,-2661,-4537,1039,106898,1
44.01826047897339,-652,-4737,1006,106961,1
44.05716609954834,450,467,529,106920,1
44.09733748435974,457,4916,613,107024,1
44.13717579841614,478,8497,3470,107106,1
44.17741823196411,-629,7057,4368,107024,1
44.21712899208069,755,6963,2331,106939,1
44.2571439743042,5381,1495,597,107611,1
44.29717540740967,5687,-14644,5286,109454,1
44.3371958732605,-32768,16394,-16021,110376,1
44.37748456001282,-1513,-56,2767,109297,1
44.41718411445618,274,-3564,1553,109618,1
44.457218170166016,-2142,-2997,1437,109677,1
44.49621510505676,-261,-1890,40,109369,1
44.536195039749146,-284,671,277,109144,1
44.57613015174866,-394,3066,641,108900,1
44.61617708206177,-179,5429,933,108806,1
44.65614914894104,485,6671,2074,108903,1
44.69616365432739,234,5440,2862,108893,1
44.73613142967224,211,5111,1410,108894,1
44.776206731796265,2909,2244,3141,109084,1
44.816179037094116,1292,-7663,3228,109345,1
44.85621190071106,-17061,-20725,10904,109614,1
44.89650011062622,3435,-6153,4005,108941,1
44.93617343902588,-2946,-5493,-2047,109101,1
44.97515034675598,-1634,-3659,1894,109127,1
45.015931367874146,-210,-366,354,109093,1
45.05510115623474,735,2215,546,109055,1
45.09523963928223,586,5158,1577,109096,1
45.13517737388611,2587,6964,1740,109061,1
45.17512083053589,2295,6502,999,109038,1
45.215206146240234,2713,5772,774,108978,1
45.255199909210205,1548,1940,-132,109034,1
45.29516077041626,1617,-5122,3336,109381,1
45.33517575263977,-7757,-21828,6332,108979,1
45.375174045562744,8206,-10185,-536,107356,1
45.41429686546326,-2232,-1063,1039,108212,1
45.45414447784424,-574,-2228,742,108341,1
45.49437427520752,-2204,-1667,-61,108481,1
45.53431534767151,-1606,-779,638,108672,1
45.57414793968201,-1132,973,-32,108615,1
45.61416697502136,-253,3155,-92,108668,1
45.654157400131226,1121,4775,-572,108511,1
45.69430899620056,2607,6148,-1096,108124,1
45.73432898521423,1406,5801,658,108003,1
45.7742075920105,-449,4496,-1270,108303,1
45.81414604187012,149,3098,1113,107796,1
45.85445189476013,2733,-2650,3681,107478,1
45.893306016922,137,-15729,4449,109938,1
45.933228731155396,-2845,-10050,-4271,107998,1
45.97325110435486,-3877,-2024,-237,108906,1
46.013882637023926,-263,-2506,1698,108757,1
46.053221702575684,-935,-1385,-426,108744,1
46.09323596954346,-156,226,-90,108740,1
46.13323712348938,10,1906,-704,108688,1
46.173229932785034,1145,3079,-632,108689,1
46.21326518058777,1775,3186,-148,108806,1
46.25317645072937,1687,2853,1540,109004,1
46.293254375457764,903,1970,2281,109129,1
46.33257699012756,761,1620,2839,109224,1
46.37243843078613,334,1301,2232,109229,1
46.41245079040527,379,1130,1809,109224,1
46.45216989517212,356,1219,1317,109187,1
46.492136001586914,786,2021,973,109095,1
46.532273292541504,1972,5504,207,108971,1
46.57221245765686,2432,7155,675,109263,1
46.6123788356781,4412,-560,-2953,109110,1
46.65225124359131,2270,-13208,1290,103500,1
46.69218921661377,-26427,11906,8890,108666,1
46.732221603393555,4740,-2802,511,108590,1
46.771193981170654,675,-1757,-216,108731,1
46.81123185157776,-1858,-1780,2043,108347,1
46.85119009017944,-945,-1199,1925,108282,1
46.891215085983276,-676,818,1368,108620,1
46.93115234375,103,3027,1346,108832,1
46.97115635871887,801,4564,983,108939,1
47.01116228103638,523,6035,99,109007,1
47.05121350288391,310,5045,300,109102,1
47.09115672111511,-256,5941,1007,108741,1
47.13118076324463,4423,2953,263,108422,1
47.171255588531494,3575,-7878,1970,108666,1
47.21036505699158,-15432,-19203,6302,99934,1
47.2503228187561,6291,-11605,-2418,108163,1
47.290244817733765,-1884,-1886,1132,108553,1
47.330188274383545,-1357,-1791,718,108583,1
47.37025785446167,-1349,-1753,601,108396,1
47.43905448913574,-1051,259,786,108306,1
47.45041108131409,-372,2103,785,108133,1
47.49023675918579,1662,3307,580,108254,1
47.53018307685852,2916,5147,-668,108372,1
47.57032370567322,3417,5092,365,108390,1
47.61072063446045,936,4608,1300,108408,1
47.65017795562744,405,3681,1724,108307,1
47.68916702270508,2247,653,3284,107526,1
47.729320764541626,1970,-8440,1465,107245,1
47.76927423477173,-11234,-13161,-4237,107734,1
47.80934929847717,4109,-6879,1411,108350,1
47.849218130111694,-2011,-1326,-1301,108301,1
47.88922691345215,-3401,-2455,921,107770,1
47.92917823791504,-2123,-2753,339,108086,1
47.969176054000854,-1009,-422,801,108356,1
48.00916290283203,-246,1985,272,108449,1
48.049213886260986,567,3945,399,108505,1
48.08919382095337,1197,5349,688,108545,1
48.12818622589111,1887,4283,546,108520,1
48.16817760467529,932,3326,96,108497,1
48.20819854736328,951,3261,341,108505,1
48.24819326400757,1649,4290,97,108502,1
48.28833532333374,5867,-2729,1338,108614,1
48.328404903411865,-231,-17253,274,108637,1
48.36817789077759,-17122,46,244,108388,1
48.40821647644043,-2330,820,2123,108649,1
48.4482057094574,-119,-2358,422,108670,1
48.48829627037048,-1912,-1586,531,108433,1
48.52820420265198,-1571,-1149,594,108355,1
48.5671763420105,-1379,-41,653,108345,1
48.607197284698486,-258,1661,391,108282,1
48.64714455604553,226,3237,460,108277,1
48.68717694282532,929,4740,862,108294,1
48.72733497619629,1399,5271,687,108274,1
48.767176151275635,943,5261,536,108207,1
48.80718684196472,1980,4740,352,108098,1
48.847185134887695,1640,650,874,108068,1
48.88729166984558,2086,-8901,1638,108218,1
48.92760396003723,-15800,-17325,7339,109902,1
48.96729588508606,3478,-9013,-573,108364,1
49.00726580619812,-2925,-1576,1125,108379,1
49.046271324157715,-388,-2652,432,108388,1
49.08621168136597,-601,-1125,-100,108321,1
49.126161098480225,-868,979,437,108366,1
49.16615414619446,136,2767,669,108355,1
49.20628309249878,139,5315,116,108507,1
49.24626064300537,1034,6355,534,108563,1
49.28626227378845,1630,5380,657,108533,1
49.326258420944214,2093,5991,-252,108313,1
49.36620759963989,5281,1236,-20,108184,1
49.40627574920654,2831,-9676,2111,108061,1
49.44632601737976,-23567,-22670,13071,110377,1
49.48520040512085,9384,-5468,-3131,108239,1
49.525203466415405,-3716,-2541,726,108368,1
49.56522512435913,-1692,-3235,490,108576,1
49.60517430305481,100,-611,503,108654,1
49.64516878128052,596,1461,58,108625,1
49.68524432182312,553,3734,-313,108639,1
49.725168228149414,874,5618,164,108713,1
49.76520252227783,1377,5219,1040,108821,1
49.805253744125366,1569,4123,1351,108774,1
49.8453369140625,832,3219,660,108662,1
49.88518762588501,1175,2605,-8,108405,1
49.924182176589966,3996,-3338,902,108581,1
49.96421527862549,688,-10880,3975,109296,1
50.00424671173096,-22247,6163,-308,108693,1
50.04439616203308,4106,-3071,977,108368,1
50.08422780036926,-2778,-2613,1272,108423,1
50.12422299385071,-2885,-3375,255,108535,1
50.16421413421631,-1998,-1602,518,108627,1
50.20425081253052,-344,927,1144,108573,1
50.244558811187744,262,3402,773,108603,1
50.284306049346924,2424,6418,1814,108586,1
50.324182987213135,5164,5685,2584,108597,1
50.36332631111145,1702,6312,1459,108345,1
50.40325212478638,4792,3545,-1072,108269,1
50.44326090812683,9432,-10352,-383,98223,1
50.48324012756348,-32768,-32768,21638,93185,1
50.52322244644165,12030,-3681,-3467,104768,1
50.563236713409424,4112,-302,423,105002,1
50.603251218795776,-831,-33,-416,105062,1
50.643324851989746,-2810,-94,1983,105103,1
50.68328070640564,-2202,-384,1751,105083,1
50.723231077194214,-2562,-625,2158,104802,1
50.76325845718384,-3604,-1749,2322,104500,1
50.803266763687134,-3035,-3480,2090,104285,1
50.84238338470459,-1440,-2572,1452,104350,1
50.882192850112915,-386,-368,541,104484,1
50.922191858291626,511,1749,-212,104584,1
50.962210178375244,620,3683,-724,104661,1
51.0022087097168,1557,6082,-417,104742,1
51.042250871658325,3344,6529,677,104683,1
51.082289695739746,239,6965,2228,104737,1
51.12222099304199,2350,3666,-711,105413,1
51.16235685348511,3428,-5337,-3569,106002,1
51.20226240158081,3155,-16982,2248,100121,1
51.24231791496277,-12790,4218,8269,104865,1
51.281216859817505,669,1395,-1388,104962,1
51.321319341659546,-2841,428,2866,105093,1
51.36139392852783,214,-323,1491,105225,1
51.40125513076782,-1814,-752,2444,105051,1
51.44129180908203,-2185,-1908,3573,104648,1
51.48125863075256,-1977,-3993,3404,104342,1
51.52124619483948,-552,-3093,1561,104493,1
51.56125068664551,443,-301,622,104518,1
51.601232290267944,642,2680,77,104578,1
51.64121460914612,683,4889,300,104835,1
51.681217432022095,781,6636,447,104967,1
51.72123336791992,1198,4745,1040,104936,1
51.760398864746094,-417,3541,111,105014,1
51.80026292800903,77,2705,-43,104940,1
51.84023976325989,631,1113,-170,104961,1
51.880274295806885,2895,-2703,232,105180,1
51.92030572891235,1026,-10402,2184,105128,1
51.960487604141235,-21744,10224,4320,105918,1
52.00024056434631,6597,-1745,115,105720,1
52.04023885726929,-481,-56,2042,105285,1
52.08023023605347,-3519,-879,1293,105185,1
52.120272636413574,-3000,-1527,1725,105306,1
52.16034388542175,-3012,-2577,2334,105389,1
52.1993293762207,-2164,-2285,1269,105230,1
52.2393000125885,-699,-562,1287,105210,1
52.27932119369507,-36,1126,624,105226,1
52.31954622268677,347,3216,289,105358,1
52.35929083824158,59,4582,277,105537,1
52.39921832084656,646,4830,710,105592,1
52.43927478790283,696,4553,761,105615,1
52.48032903671265,611,4429,6,105582,1
52.519280672073364,1698,3418,-76,105482,1
52.559277296066284,3848,-2092,-844,105730,1
52.59923815727234,1076,-12989,1346,105920,1
52.63935399055481,-24641,10429,2886,107234,1
52.67847514152527,2779,-1110,1246,106368,1
52.71823239326477,321,-1197,839,106314,1
52.75833582878113,-2286,-1260,1099,106139,1
52.79845643043518,-2110,-2072,1838,105874,1
52.83826804161072,-1327,-1779,938,105745,1
52.87828540802002,-1189,-292,946,105774,1
52.91822624206543,-369,1324,920,105976,1
52.95823359489441,146,3222,415,106101,1
52.99828052520752,-121,4392,505,106157,1
53.03822064399719,-58,4636,673,106171,1
53.0782527923584,-233,3842,592,106205,1
53.117504358291626,-1410,3710,-296,106240,1
53.15720319747925,-516,4525,112,106179,1
53.197447061538696,1517,3051,1007,106280,1
53.23740863800049,2452,-1849,1176,106561,1
53.27798938751221,1859,-9428,1548,106648,1
53.317797899246216,-23884,2820,-157,106747,1
53.35729146003723,5049,-1978,12,106046,1
53.39723610877991,1432,-65,2507,105888,1
53.43743419647217,-3089,-939,696,105660,1
53.47753953933716,-3249,-2204,1185,105401,1
53.517661333084106,-1810,-1815,1280,105266,1
53.55632305145264,-447,-403,623,105426,1
53.59653282165527,-701,946,1066,106044,1
53.63622546195984,-263,1696,957,106470,1
53.676212310791016,22,3320,565,106622,1
53.716241121292114,237,4528,562,106681,1
53.75624346733093,-913,5798,666,106686,1
53.79653215408325,685,5306,614,106577,1
53.83625841140747,1718,5780,950,106326,1
53.87630748748779,4612,1612,-683,106454,1
53.916266679763794,2854,-6988,2167,106585,1
53.95635437965393,-9008,-17741,6384,107097,1
53.995238065719604,4880,-10075,-3231,106471,1
54.03527116775513,-2469,-1531,3912,106243,1
54.07524633407593,260,-2662,773,106085,1
54.11521649360657,593,-875,822,106425,1
54.15520715713501,230,545,918,106662,1
54.19547891616821,734,2363,922,106730,1
54.235241174697876,350,3859,566,106806,1
54.29819631576538,384,4649,757,106994,1
54.31865358352661,-1592,5051,1690,107038,1
54.355297565460205,-1095,4447,1823,106858,1
54.395312786102295,157,5017,2400,107009,1
54.43444514274597,576,3721,2482,107216,1
54.47441267967224,4315,-3949,-2601,106985,1
54.51430821418762,-74,-12684,2120,104748,1
54.554288387298584,-20634,5721,4790,107589,1
54.5947539806366,5068,-3016,1152,106922,1
54.634244203567505,72,-3127,1458,107027,1
54.6742627620697,-981,-2303,880,106956,1
54.71425199508667,-422,-968,1289,106863,1
54.75425624847412,410,788,900,106912,1
54.79452919960022,484,2871,374,107016,1
54.83423328399658,1128,3942,427,107032,1
54.87436032295227,1018,5562,776,107072,1
54.91328477859497,470,4889,1498,107178,1
54.95321249961853,89,4354,363,107324,1
54.99322438240051,607,3965,66,107360,1
55.033323526382446,112,1342,475,107246,1
55.07329201698303,3366,-7000,-1415,107231,1
55.11324596405029,-329,-9769,5302,107120,1
55.15330505371094,-10179,1527,7815,107275,1
55.19368267059326,3882,-2862,-934,106942,1
55.233259201049805,-1055,-991,1958,106935,1
55.27334761619568,-1700,-1051,1351,106811,1
55.31325817108154,-317,-660,2655,106610,1
55.35230731964111,267,-334,2302,106581,1
55.392284870147705,106,431,1680,106655,1
55.43226456642151,792,1529,1386,106703,1
55.47225856781006,1250,2468,884,106695,1
55.51234984397888,1196,3452,676,106753,1
55.552239179611206,1101,4341,475,106870,1
55.592302083969116,-450,3849,142,107036,1
55.63227081298828,-1426,3931,223,107043,1
55.67230796813965,-1130,4662,594,106812,1
55.71253275871277,3317,1193,-627,106962,1
55.75224184989929,3558,-9662,591,105916,1
55.79135322570801,-13548,-16217,14945,103429,1
55.83127808570862,-155,-6830,-1705,106948,1
55.87135696411133,-1088,79,3783,106814,1
55.91129732131958,-489,-2714,367,106841,1
55.9512882232666,-1660,-2442,2383,106729,1
55.99128460884094,-388,-1694,1593,106819,1
56.031240940093994,1293,876,415,106967,1
56.07127141952515,1276,2899,325,107027,1
56.111356019973755,1560,4805,445,107013,1
56.151344299316406,2604,5286,1057,106971,1
56.19127917289734,914,5094,1808,107069,1
56.231263875961304,-228,5006,1396,107080,1
56.27032279968262,2069,5028,-320,106892,1
56.31035542488098,5230,-3100,-2697,107373,1
56.35047507286072,1298,-16663,628,98290,1
56.390355348587036,-20800,11756,15643,106617,1
56.43031144142151,6761,-3959,-2251,106689,1
56.47027134895325,1161,-1233,519,106801,1
56.5104558467865,-669,-838,2152,106810,1
56.55034923553467,-1313,-1860,2879,106676,1
56.59031653404236,-1121,-1473,1890,106507,1
56.63038396835327,-507,394,1398,106437,1
56.67024254798889,540,2415,496,106492,1
56.710549116134644,228,4155,463,106695,1
56.74929165840149,936,5754,742,106762,1
56.78925561904907,1209,4976,921,106763,1
56.82964015007019,-69,4196,356,106773,1
56.86932563781738,-117,2777,-33,106807,1
56.90949010848999,1124,716,159,107297,1
56.94931602478027,3009,-10156,-2172,107082,1
56.98940443992615,-12765,-12962,17459,104931,1
57.02934241294861,2909,-7202,367,106436,1
57.06932187080383,-1435,-1116,2337,106358,1
57.10927224159241,-269,-2736,1377,106370,1
57.14929223060608,-695,-701,2239,106291,1
57.18929934501648,-1163,-283,1260,106332,1
57.22833514213562,-614,2046,570,106427,1
57.268279790878296,-293,3184,-376,106614,1
57.30826687812805,124,4968,-338,106732,1
57.348373889923096,1509,5674,419,106711,1
57.388245582580566,758,4540,839,106806,1
57.428431034088135,777,3591,392,106785,1
57.46826505661011,929,582,-189,106691,1
57.508291244506836,1987,-3439,-592,106825,1
57.548301458358765,322,-11202,845,103944,1
57.58829736709595,-12432,5632,13553,106109,1
57.62829399108887,5895,-3792,-482,105829,1
57.66733908653259,-1610,-1426,1713,105961,1
57.70730257034302,-565,-2686,2066,105955,1
57.74734282493591,-1049,-1529,2905,105897,1
57.787233114242554,198,18,1806,105927,1
57.82796859741211,769,2019,1304,105971,1
57.867335081100464,781,3287,1780,106066,1
57.90732979774475,1134,3861,1950,106109,1
57.947325468063354,1070,3899,1778,106198,1
57.987282276153564,315,3697,1036,106328,1
58.02774453163147,107,3935,639,106319,1
58.06725740432739,2311,4481,1014,106979,1
58.10729670524597,5802,-5514,-3942,107855,1
58.14627814292908,435,-16851,1697,95341,1
58.186333656311035,-16074,4846,10919,105210,1
58.22696781158447,4477,-1906,-123,106566,1
58.266324520111084,650,-759,-246,106577,1
58.3062903881073,-418,-173,2732,106333,1
58.34637403488159,-1104,-1274,3389,106399,1
58.38641929626465,-1534,-2158,2267,106707,1
58.42633509635925,-1684,-1756,2420,106849,1
58.46626281738281,-1129,-561,1650,106739,1
58.5062575340271,569,1586,623,106720,1
58.54628610610962,723,3246,404,106877,1
58.58531737327576,1419,4624,243,107085,1
58.62530016899109,1898,5217,610,107044,1
58.665305614471436,-343,4940,576,107070,1
58.70530891418457,-1517,5471,1016,107190,1
58.74531054496765,1911,4392,806,106439,1
58.785337686538696,5745,-7116,-3083,106464,1
58.825326442718506,-2628,-20990,5995,78184,1
58.865285873413086,-1289,-9161,835,103619,1
58.905335664749146,2487,1073,-602,103776,1
58.94529390335083,1008,477,283,103655,1
58.985291719436646,-1136,-304,3594,103382,1
59.02532744407654,-1759,-1184,2996,103023,1
59.064332723617554,-1564,-2458,3056,102593,1
59.10431098937988,-975,-2336,1997,102552,1
59.14457678794861,-343,-1083,1088,102500,1
59.1842782497406,323,829,1138,102962,1
59.2243492603302,663,3231,-18,103520,1
59.264312505722046,1015,5796,-219,103742,1
59.30430221557617,2221,7073,804,103702,1
59.3446843624115,773,6280,585,103627,1
59.3843035697937,804,5118,-1819,104221,1
59.424338817596436,4181,-892,-2586,104553,1
59.4645140171051,2263,-8893,2175,103015,1
59.50331926345825,-8970,-13860,17959,72661,1
59.54353928565979,-1980,-6882,-1670,103311,1
59.58334445953369,2236,662,-2859,103880,1
59.6233229637146,1130,155,1133,103655,1
59.66332030296326,240,112,3959,103228,1
59.70333909988403,-496,-855,3193,102691,1
59.74337339401245,-126,-1855,4025,101422,1
59.78338861465454,-635,-2102,3193,100706,1
59.82331609725952,-70,-833,2006,99640,1
59.86341047286987,497,1642,1080,98894,1
59.90328574180603,765,3993,1093,98475,1
59.94340252876282,1921,5488,1517,98527,1
59.98230338096619,3227,5771,1590,99349,1
60.02226233482361,962,3811,97,101249,2
60.06269717216492,-260,3665,-125,103577,2
60.102335929870605,1162,3683,552,105054,2
60.142377614974976,5351,-4369,-4804,106067,2
60.182355880737305,1925,-21404,2734,70868,2
60.22233986854553,-11223,2546,13907,99970,2
60.2623610496521,4510,599,-2318,104025,2
60.30238723754883,1333,-92,678,103942,2
60.34240984916687,465,415,4228,103850,2
60.38229489326477,-376,-391,2605,103830,2
60.421287536621094,-46,-698,2822,103629,2
60.461342573165894,-52,-1361,3097,103367,2
60.50136590003967,-792,-2029,2783,102771,2
60.541322231292725,-332,-1958,2343,101867,2
60.58159828186035,7,310,868,101086,2
60.621336221694946,955,2079,260,101013,2
60.66144585609436,1609,3716,276,101558,2
60.70136284828186,2889,4720,1671,102320,2
60.74128723144531,1508,3969,426,104083,2
60.781349658966064,-606,2074,-634,104345,2
60.8213107585907,-1116,1624,576,104653,2
60.861430644989014,-411,1596,1332,104728,2
60.900349378585815,-1184,3040,1223,104818,2
60.94037699699402,1199,-93,-820,105105,2
60.98036551475525,2739,-7481,1318,104067,2
61.020479917526245,-9431,-3699,12216,103386,2
61.060460567474365,2882,-3350,43,105065,2
61.10035276412964,1396,377,-1748,105116,2
61.167381286621094,-560,206,3519,104895,2
61.180734395980835,-684,-85,2251,104974,2
61.22035551071167,-594,-129,1528,104970,2
61.26047086715698,-265,145,2367,104936,2
61.30033040046692,-230,70,1917,104974,2
61.339367628097534,-173,-68,1570,104950,2
61.379623889923096,-122,-35,1736,104874,2
61.41936111450195,-108,-86,1921,104827,2
61.459330558776855,-238,-145,1691,104834,2
61.49932360649109,-88,-86,1832,104811,2
61.53931927680969,-24,-206,2212,104756,2
61.57932806015015,-518,-241,2176,104729,2
61.61933183670044,-306,-372,2464,104622,2
61.659377336502075,-333,-292,2407,104625,2
61.699360609054565,-553,-260,2028,104584,2
61.73931884765625,-192,-309,2356,104557,2
61.7785542011261,-651,-200,2237,104590,2
61.818408727645874,-967,-192,1989,104584,2
61.85835385322571,-360,-127,2297,104590,2
61.89831280708313,-809,0,1800,104646,2
61.93832063674927,-823,68,1986,104651,2
61.9786274433136,-746,113,2175,104668,2
62.01833701133728,-1012,154,1857,104651,2
62.058316469192505,-670,193,2015,104599,2
62.09831619262695,-870,309,1872,104576,2
62.138331174850464,-708,273,1909,104543,2
62.178338050842285,-601,323,2032,104505,2
62.21833658218384,-776,284,1910,104548,2
62.25737762451172,-824,352,1701,104574,2
62.297435998916626,-909,446,1649,104580,2
62.337319135665894,-867,539,1912,104527,2
62.377535343170166,-816,615,2330,104489,2
62.41731858253479,-739,551,2175,104507,2
62.45730686187744,-689,381,1941,104507,2
62.49794936180115,-599,419,1774,104516,2
62.537320375442505,-583,374,1729,104495,2
62.57788157463074,-517,599,1789,104521,2
62.617313861846924,-573,315,856,104568,2
62.65733003616333,-648,259,1522,104556,2
62.697322368621826,-869,290,1820,104587,2
62.73633432388306,-767,337,1576,104596,2
62.77631068229675,-701,372,1597,104566,2
62.8163161277771,-615,481,1817,104568,2
62.85631823539734,-382,509,1981,104575,2
62.896326303482056,-380,517,2197,104594,2
62.93637943267822,-206,507,2056,104620,2
62.97641372680664,-463,519,2132,104626,2
63.016430377960205,-564,469,2139,104647,2
63.05632185935974,-379,492,1782,104669,2
63.09632229804993,-362,507,2037,104674,2
63.13633894920349,-352,517,1955,104736,2
63.17532825469971,-197,478,1739,104763,2
63.21533417701721,-392,531,1978,104776,2
63.25533080101013,-362,481,1826,104807,2
63.29564428329468,-193,423,1822,104813,2
63.335315465927124,-1,363,1834,104837,2
63.375309467315674,-176,294,1811,104820,2
63.41533660888672,-413,380,2190,104794,2
63.45533990859985,-578,430,2033,104723,2
63.49565315246582,-616,296,1891,104696,2
63.53540396690369,-547,230,2157,104644,2
63.57536458969116,-287,247,2550,104633,2
63.614304065704346,-305,155,2240,104662,2
63.65435028076172,-264,29,1636,104703,2
63.694579124450684,-229,-45,1471,104735,2
63.734338998794556,-306,-199,1372,104741,2
63.77435493469238,-205,-340,1813,104731,2
63.814367055892944,-187,-497,1807,104722,2
63.85433650016785,-152,-569,2273,104667,2
63.89482593536377,175,-663,2674,104609,2
63.934327363967896,120,-798,1943,104612,2
63.9744017124176,-127,-1073,1546,104562,2
64.01461601257324,-150,-1219,1581,104535,2
64.05340909957886,-266,-1667,1162,104512,2
64.0934534072876,-564,-2046,1244,104238,2
64.13336706161499,-935,-2283,1487,103574,2
64.17337536811829,-1075,-2083,1564,102730,2
64.2133674621582,-829,-1738,1360,101870,2
64.25335836410522,-651,-1654,1130,101440,2
64.29343175888062,-619,-1795,756,101259,2
64.33337903022766,-655,-1928,433,101270,2
64.37343049049377,-729,-1867,333,101139,2
64.41337990760803,-763,-1812,456,100841,2
64.45335650444031,-770,-1751,495,100526,2
64.49337530136108,-790,-1768,621,100277,2
64.53246092796326,-802,-1793,749,100306,2
64.57237362861633,-789,-1791,1408,100985,2
64.61235761642456,-679,-1799,980,101594,2
64.65236616134644,-616,-1774,838,102066,2
64.69296050071716,-728,-1729,765,102353,2
64.73236680030823,-694,-1767,740,102481,2
64.77239489555359,-757,-1725,767,102522,2
64.81234169006348,-802,-1766,683,102473,2
64.85236120223999,-792,-1780,598,102467,2
64.89235019683838,-762,-1799,627,102387,2
64.93235635757446,-731,-1814,606,102171,2
64.9723572731018,-747,-1762,656,101915,2
65.01155495643616,-655,-1779,732,101740,2
65.05135869979858,-724,-1807,647,101682,2
65.09135174751282,-676,-1822,691,101717,2
65.13134717941284,-730,-1819,724,101809,2
65.17135500907898,-744,-1804,763,101894,2
65.21154284477234,-567,-1860,815,101635,2
65.25134825706482,-497,-1635,1162,101104,2
65.2913908958435,-249,-1810,821,101025,2
65.3313889503479,-794,-1901,493,100812,2
65.3714246749878,-574,-1832,743,99960,2
65.41143846511841,-473,-1799,893,99618,2
65.45037698745728,-531,-1779,834,99514,2
65.49042177200317,-493,-1675,883,99887,2
65.5304799079895,-707,-1732,801,100387,2
65.57041120529175,-739,-1840,577,100615,2
65.61042928695679,-664,-1819,644,100487,2
65.65036630630493,-645,-1764,717,100428,2
65.69037628173828,-704,-1730,747,100494,2
65.7304413318634,-741,-1724,821,100391,2
65.77038288116455,-805,-1778,740,100072,2
65.81046295166016,-834,-1774,695,99487,2
65.85035347938538,-774,-1789,752,98912,2
65.89038825035095,-732,-1783,744,98672,2
65.93038272857666,-704,-1758,739,98466,2
65.96935081481934,-717,-1756,793,98254,2
66.00935411453247,-754,-1787,758,98102,2
66.04940056800842,-791,-1781,678,97941,2
66.08935713768005,-803,-1791,629,97848,2
66.12938022613525,-795,-1795,633,97724,2
66.16935539245605,-819,-1803,651,97676,2
66.20938277244568,-835,-1778,618,97744,2
66.24941730499268,-811,-1773,607,97886,2
66.28934025764465,-795,-1776,596,98011,2
66.32949829101562,-820,-1788,567,97993,2
66.36935067176819,-832,-1773,602,97879,2
66.40936064720154,-770,-1779,646,97746,2
66.44837784767151,-777,-1787,611,97658,2
66.48838543891907,-772,-1819,603,97580,2
66.52842378616333,-773,-1799,605,97261,2
66.56838631629944,-773,-1779,617,96860,2
66.60834670066833,-766,-1801,633,96555,2
66.64835906028748,-769,-1797,656,96277,2
66.68836736679077,-771,-1805,602,96111,2
66.72850489616394,-767,-1788,593,96005,2
66.76834177970886,-764,-1781,577,95950,2
66.80880069732666,-787,-1786,592,95922,2
66.84863471984863,-805,-1790,607,95919,2
66.88859558105469,-807,-1785,628,96008,2
66.92775297164917,-800,-1776,655,96139,2
66.96738290786743,-792,-1785,647,96240,2
67.00737190246582,-774,-1791,647,96306,2
67.04738521575928,-791,-1780,629,96344,2
67.08740448951721,-786,-1786,625,96328,2
67.127681016922,-790,-1788,633,96336,2
67.16735577583313,-788,-1786,633,96333,2
67.20738315582275,-787,-1776,616,96347,2
67.24789834022522,-765,-1792,611,96446,2
67.28738856315613,-792,-1797,624,96440,2
67.32752513885498,-783,-1769,650,96156,2
67.36744046211243,-786,-1790,624,95881,2
67.40635180473328,-795,-1788,634,95676,2
67.4463746547699,-781,-1790,610,95581,2
67.48648071289062,-769,-1782,601,95553,2
67.52639508247375,-784,-1793,612,95629,2
67.5664005279541,-795,-1785,629,95669,2
67.60639476776123,-790,-1781,630,95700,2
67.64669871330261,-788,-1782,618,95753,2
67.68637013435364,-787,-1773,629,95745,2
67.72636294364929,-791,-1779,630,95759,2
67.76642203330994,-785,-1777,599,95808,2
67.83914613723755,-803,-1784,633,95823,2
67.84681820869446,-791,-1765,654,95819,2
67.88539695739746,-774,-1786,609,95845,2
67.92594003677368,-788,-1774,580,95903,2
67.96540904045105,-792,-1808,569,96020,2
68.00541758537292,-803,-1781,601,96106,2
68.04538941383362,-801,-1783,658,96225,2
68.08541178703308,-822,-1794,636,96238,2
68.12537670135498,-800,-1769,673,95901,2
68.16538000106812,-810,-1783,644,95600,2
68.20540142059326,-805,-1786,612,95440,2
68.24596214294434,-778,-1793,603,95267,2
68.28537845611572,-775,-1781,603,95159,2
68.32537126541138,-785,-1790,582,95144,2
68.36537957191467,-785,-1791,590,95178,2
68.40440440177917,-795,-1781,641,95217,2
68.44557428359985,-797,-1784,640,95297,2
68.48439335823059,-799,-1785,609,95421,2
68.52542781829834,-788,-1773,621,95498,2
68.56440544128418,-799,-1778,589,95588,2
68.60465574264526,-806,-1778,612,95718,2
68.6445803642273,-828,-1770,599,95859,2
68.6843683719635,-804,-1768,617,95893,2
68.72443747520447,-806,-1779,618,95921,2
68.76441812515259,-807,-1796,635,95958,2
68.80438780784607,-793,-1786,620,96038,2
68.8437888622284,-773,-1773,590,96136,2
68.88339805603027,-777,-1785,584,96232,2
68.9234254360199,-829,-1778,607,96055,2
68.9637188911438,-834,-1768,624,95734,2
69.00342035293579,-832,-1780,623,95512,2
69.04378318786621,-819,-1783,618,95422,2
69.08341121673584,-793,-1775,597,95377,2
69.12341785430908,-774,-1800,589,95295,2
69.16345715522766,-810,-1801,615,95260,2
69.20399260520935,-800,-1788,623,95199,2
69.24364829063416,-787,-1791,596,95152,2
69.28337454795837,-807,-1794,621,95077,2
69.3224606513977,-788,-1775,618,94975,2
69.36280727386475,-787,-1783,609,94903,2
69.40239238739014,-815,-1780,610,94850,2
69.44241571426392,-815,-1766,634,94805,2
69.48240756988525,-808,-1769,614,94768,2
69.52240538597107,-823,-1775,614,94743,2
69.56255722045898,-811,-1800,635,94737,2
69.60244250297546,-795,-1787,627,94709,2
69.64239072799683,-776,-1786,617,94683,2
69.68241930007935,-771,-1785,622,94576,2
69.72245264053345,-776,-1811,616,94569,2
69.76211476325989,-782,-1786,626,94365,2
69.8014087677002,-776,-1781,633,93996,2
69.84137916564941,-765,-1797,625,93756,2
69.88172936439514,-758,-1788,611,93680,2
69.92139196395874,-776,-1783,604,93654,2
69.96150946617126,-761,-1796,608,93637,2
70.00141954421997,-780,-1799,608,93601,2
70.04140281677246,-779,-1780,641,93508,2
70.08147144317627,-763,-1783,636,93423,2
70.12145400047302,-765,-1798,620,93388,2
70.16152501106262,-788,-1796,631,93424,2
70.20117831230164,-771,-1783,627,93484,2
70.24037575721741,-759,-1777,633,93532,2
70.28041505813599,-765,-1785,619,93604,2
70.32043886184692,-765,-1805,621,93658,2
70.36039757728577,-767,-1805,644,93693,2
70.40061116218567,-762,-1801,634,93770,2
70.44040489196777,-751,-1783,635,93774,2
70.48066306114197,-741,-1825,624,93772,2
70.52047634124756,-773,-1798,631,93599,2
70.56051540374756,-733,-1790,639,93223,2
70.60047149658203,-730,-1806,630,92973,2
70.64048981666565,-753,-1810,637,92851,2
70.67977261543274,-746,-1789,639,92798,2
70.71938753128052,-712,-1810,631,92835,2
70.75947451591492,-737,-1808,614,92886,2
70.79944968223572,-750,-1796,642,92827,2
70.83947491645813,-716,-1794,643,92789,2
70.87951827049255,-751,-1802,635,92793,2
70.91969609260559,-751,-1807,663,92807,2
70.95954275131226,-750,-1800,670,92815,2
70.99940633773804,-755,-1792,658,92855,2
71.03940963745117,-752,-1779,663,92903,2
71.07969999313354,-748,-1784,673,92943,2
71.11843490600586,-756,-1785,664,92999,2
71.15854620933533,-771,-1773,645,93065,2
71.19846510887146,-731,-1806,651,93142,2
71.23844861984253,-795,-1805,647,93211,2
71.27908515930176,-760,-1739,699,93006,2
71.31848096847534,-712,-1737,668,92773,2
71.35850214958191,-705,-1755,640,92635,2
71.39843606948853,-723,-1781,598,92570,2
71.43841695785522,-736,-1809,565,92563,2
71.47845649719238,-736,-1788,577,92544,2
71.51846146583557,-734,-1787,596,92510,2
71.55848097801208,-745,-1760,617,92504,2
71.59750151634216,-732,-1655,635,92483,2
71.63740086555481,-673,-1611,713,92387,2
71.67753076553345,-654,-1796,681,92369,2
71.71774077415466,-796,-2017,558,92515,2
71.75743412971497,-860,-2012,484,92674,2
71.79762029647827,-764,-1820,550,92661,2
71.837482213974,-724,-1658,889,92955,2
71.87805986404419,-808,-1700,921,93399,2
71.91742491722107,-861,-1780,758,93619,2
71.95740938186646,-844,-1808,670,93473,2
71.99742913246155,-861,-1795,622,93098,2
72.03643035888672,-778,-1773,604,92782,2
72.07644438743591,-751,-1790,583,92604,2
72.11642742156982,-765,-1805,593,92510,2
72.15643382072449,-773,-1783,611,92485,2
72.19642853736877,-725,-1802,601,92542,2
72.23648309707642,-743,-1810,600,92572,2
72.27646088600159,-774,-1780,653,92615,2
72.31643033027649,-792,-1780,686,92737,2
72.35644698143005,-817,-1779,671,92885,2
72.39656686782837,-803,-1763,686,92926,2
72.43643355369568,-789,-1769,645,92931,2
72.4754068851471,-791,-1796,604,92940,2
72.51573085784912,-773,-1770,610,92944,2
72.5558590888977,-771,-1784,596,92919,2
72.59590697288513,-767,-1785,602,92880,2
72.63572287559509,-773,-1768,624,92850,2
72.67567038536072,-783,-1798,610,92909,2
72.71546912193298,-795,-1786,631,92800,2
72.75545907020569,-775,-1780,674,92411,2
72.79598426818848,-786,-1791,650,92128,2
72.83547520637512,-780,-1779,618,92034,2
72.87544202804565,-769,-1785,599,91988,2
72.91566038131714,-777,-1778,595,91950,2
72.9548647403717,-785,-1795,611,91952,2
72.99470734596252,-808,-1790,635,92038,2
73.03443098068237,-778,-1787,647,92101,2
73.07441353797913,-762,-1807,635,92174,2
73.11441731452942,-765,-1806,610,92340,2
73.15448808670044,-741,-1801,615,92441,2
73.19482350349426,-764,-1801,613,92534,2
73.23444080352783,-803,-1793,621,92593,2
73.27454686164856,-778,-1776,622,92701,2
73.31460070610046,-791,-1791,598,92789,2
73.35442566871643,-796,-1778,623,92868,2
73.39344930648804,-790,-1779,612,92941,2
73.43344259262085,-783,-1781,591,92984,2
73.47343730926514,-769,-1795,613,92978,2
73.51342844963074,-811,-1806,607,92916,2
73.55343341827393,-782,-1757,608,93069,2
73.59345197677612,-791,-1777,604,93478,2
73.63364171981812,-801,-1793,610,93866,2
73.67363214492798,-774,-1793,592,94372,2
73.71345114707947,-765,-1777,593,94846,2
73.7534589767456,-798,-1803,598,95331,2
73.7934319972992,-801,-1788,590,95738,2
73.83363008499146,-772,-1790,603,95996,2
73.87242674827576,-775,-1794,586,96240,2
73.91261410713196,-789,-1801,591,96419,2
73.95257234573364,-769,-1794,606,96493,2
73.9924476146698,-791,-1790,609,96601,2
74.03264808654785,-778,-1792,601,96675,2
74.07242131233215,-794,-1787,607,96765,2
74.11244368553162,-798,-1789,594,96849,2
74.15243101119995,-790,-1793,595,96915,2
74.19246912002563,-791,-1777,604,96939,2
74.23506689071655,-787,-1789,598,96940,2
74.27253270149231,-783,-1795,585,96996,2
74.31248021125793,-774,-1813,583,97078,2
74.35148358345032,-794,-1798,607,97092,2
74.39157009124756,-791,-1777,628,97016,2
74.43218803405762,-810,-1817,559,97176,2
74.4715027809143,-781,-1763,653,97436,2
74.51700925827026,-760,-1748,668,97620,2
74.55179476737976,-790,-1798,537,97677,2
74.59147906303406,-731,-1794,650,98033,2
74.63145780563354,-748,-1819,563,98729,2
74.67144107818604,-617,-2008,219,99244,2
74.7120897769928,-779,-1756,627,98760,2
74.75161647796631,-789,-1768,684,97265,2
74.79074811935425,-938,-1858,567,96554,2
74.83045172691345,-764,-1773,660,96790,2
74.87056279182434,-852,-1718,648,96951,2
74.91167950630188,-841,-1777,520,97347,2
74.95044994354248,-870,-1759,492,97630,2
74.99054408073425,-832,-1746,573,98194,2
75.03048181533813,-981,-1734,540,99021,2
75.07072520256042,-937,-1770,515,99231,2
75.11059832572937,-920,-1749,576,99368,2
75.15055322647095,-897,-1737,583,99394,2
75.19044780731201,-945,-1795,449,99394,2
75.23087739944458,-1037,-1776,418,99226,2
75.26952028274536,-844,-1727,628,98884,2
75.30960607528687,-979,-1727,546,98425,2
75.34945368766785,-933,-1780,481,97934,2
75.3896017074585,-879,-1766,518,97547,2
75.42941856384277,-891,-1754,515,97407,2
75.46952509880066,-920,-1760,546,97216,2
75.50951886177063,-917,-1734,561,96953,2
75.54948544502258,-903,-1780,502,96854,2
75.58946919441223,-919,-1750,517,96779,2
75.62959337234497,-915,-1755,545,96576,2
75.66945958137512,-913,-1730,555,96410,2
75.70853781700134,-903,-1768,502,96433,2
75.74902987480164,-888,-1771,502,96510,2
75.78882646560669,-891,-1761,539,96598,2
75.82860469818115,-905,-1785,503,96807,2
75.86851215362549,-895,-1779,540,97018,2
75.90853786468506,-913,-1760,524,97262,2
75.94851326942444,-880,-1753,511,97505,2
75.98870730400085,-890,-1746,507,97624,2
76.02891683578491,-892,-1777,489,97682,2
76.06846356391907,-901,-1779,516,97657,2
76.10846829414368,-912,-1752,540,97473,2
76.14848279953003,-912,-1758,562,97315,2
76.1875946521759,-908,-1754,538,97265,2
76.2288179397583,-888,-1768,519,97197,2
76.26761102676392,-897,-1758,514,97072,2
76.30760169029236,-890,-1778,522,96988,2
76.3474633693695,-898,-1775,509,96916,2
76.38744711875916,-869,-1757,537,96821,2
76.42759037017822,-879,-1775,509,96747,2
76.46762418746948,-889,-1783,501,96724,2
76.50746059417725,-865,-1790,532,96725,2
76.54755854606628,-883,-1779,519,96729,2
76.58747673034668,-856,-1782,504,96780,2
76.62677955627441,-864,-1778,521,96801,2
76.66673564910889,-874,-1778,494,96845,2
76.70669507980347,-868,-1779,499,96897,2
76.7466094493866,-846,-1783,516,96957,2
76.78653120994568,-867,-1781,484,97087,2
76.82662844657898,-852,-1768,509,97138,2
76.86668658256531,-850,-1803,507,97102,2
76.90684914588928,-881,-1776,513,96771,2
76.94666314125061,-854,-1772,520,96106,2
76.9864821434021,-867,-1788,505,95558,2
77.02690315246582,-858,-1806,495,95287,2
77.0665020942688,-845,-1782,506,95241,2
77.10547423362732,-856,-1782,511,95184,2
77.14551758766174,-852,-1785,530,95164,2
77.18565320968628,-870,-1778,521,95006,2
77.22567057609558,-836,-1778,526,94831,2
77.26549935340881,-846,-1806,506,94779,2
77.3054609298706,-867,-1787,509,94818,2
77.34556269645691,-856,-1791,525,94900,2
77.3854627609253,-851,-1798,505,94947,2
77.42545986175537,-848,-1798,514,94959,2
77.46548509597778,-855,-1800,498,95034,2
77.50547575950623,-850,-1797,522,95170,2
77.54547357559204,-859,-1779,515,95313,2
77.58448576927185,-857,-1780,516,95446,2
77.62449288368225,-865,-1778,495,95623,2
77.66452550888062,-843,-1789,509,95756,2
77.70448422431946,-886,-1797,496,95856,2
77.74467897415161,-855,-1768,526,95626,2
77.78446984291077,-870,-1789,524,95355,2
77.82446694374084,-880,-1776,498,95288,2
77.8645007610321,-841,-1787,501,95306,2
77.90451288223267,-865,-1767,494,95293,2
77.94461941719055,-864,-1794,505,95345,2
77.98511099815369,-895,-1787,518,95412,2
78.02365326881409,-873,-1784,512,95446,2
78.06344246864319,-855,-1790,500,95442,2
78.1034824848175,-851,-1778,496,95439,2
78.14350581169128,-850,-1785,504,95391,2
78.18349123001099,-857,-1783,496,95323,2
78.22349691390991,-854,-1774,502,95315,2
78.26383805274963,-866,-1780,489,95342,2
78.3034930229187,-881,-1791,506,95423,2
78.34348034858704,-891,-1799,562,95571,2
78.38365054130554,-874,-1801,552,95755,2
78.42348647117615,-845,-1775,495,95916,2
78.46364712715149,-803,-1785,436,96102,2
78.50266218185425,-839,-1791,503,96260,2
78.54263925552368,-969,-1739,602,96140,2
78.58249807357788,-994,-1729,596,95721,2
78.6225106716156,-985,-1745,612,95327,2
78.66276454925537,-905,-1762,555,95079,2
78.70263814926147,-808,-1795,435,94950,2
78.74263644218445,-692,-1821,380,95055,2
78.78247928619385,-718,-1809,405,95251,2
78.82249164581299,-847,-1771,609,95246,2
78.862478017807,-969,-1729,713,95097,2
78.90267181396484,-1023,-1717,594,95104,2
78.94252038002014,-936,-1727,577,95102,2
78.98150086402893,-929,-1751,579,94946,2
79.0216760635376,-868,-1783,549,94800,2
79.06227970123291,-784,-1805,483,94917,2
79.10161185264587,-741,-1812,461,95249,2
79.14149236679077,-828,-1775,544,95475,2
79.18166756629944,-865,-1766,623,95503,2
79.22168159484863,-904,-1760,593,95388,2
79.26173806190491,-923,-1751,566,95175,2
79.30150747299194,-887,-1735,579,94777,2
79.3416359424591,-885,-1782,524,94348,2
79.38167405128479,-851,-1783,513,93888,2
79.420729637146,-824,-1759,559,93227,2
79.46050977706909,-855,-1783,575,92889,2
79.50064396858215,-882,-1767,580,92808,2
79.54050707817078,-879,-1754,596,92758,2
79.58049201965332,-888,-1754,578,92686,2
79.62063908576965,-916,-1754,573,92555,2
79.66061592102051,-886,-1740,560,92379,2
79.70063138008118,-865,-1758,546,92507,2
79.74049067497253,-862,-1781,566,92883,2
79.78054904937744,-866,-1769,604,93284,2
79.82060694694519,-866,-1773,593,93645,2
79.86047673225403,-869,-1757,583,93767,2
79.8996593952179,-862,-1751,556,93836,2
79.93964099884033,-860,-1768,555,93928,2
79.97963666915894,-859,-1752,575,94077,2
80.0196750164032,-850,-1777,592,94380,2
80.05961513519287,-853,-1774,596,94677,2
80.09951329231262,-846,-1763,572,94901,2
80.14092588424683,-843,-1755,580,94969,2
80.17950892448425,-870,-1773,578,94967,2
80.21952795982361,-863,-1748,593,94735,2
80.25951600074768,-871,-1752,586,94431,2
80.2994978427887,-881,-1764,599,94356,2
80.33849668502808,-872,-1763,604,94424,2
80.37859725952148,-870,-1766,601,94481,2
80.41850113868713,-850,-1750,567,94497,2
80.45853304862976,-838,-1765,519,94461,2
80.49868631362915,-830,-1736,535,94266,2
80.53851437568665,-805,-1720,546,94218,2
80.57855486869812,-830,-1741,575,94304,2
80.61849212646484,-825,-1712,586,94416,2
80.65852379798889,-918,-1611,728,94561,2
80.69856357574463,-737,-1610,875,94560,2
80.73859810829163,-623,-1738,983,93822,2
80.77762055397034,-636,-1750,1015,93054,2
80.81763315200806,-762,-1687,1080,92790,2
80.85750341415405,-970,-1608,1103,92790,2
80.89805674552917,-1064,-1561,1159,92838,2
80.93768286705017,-1247,-1514,1279,92925,2
80.9776246547699,-1313,-1515,1494,92356,2
81.01762461662292,-1263,-1483,1734,92017,2
81.0575623512268,-1460,-1313,1830,92872,2
81.09760737419128,-1417,-1182,1736,93786,2
81.14502358436584,-1355,-866,1842,94299,2
81.17976331710815,-1137,-606,1685,94736,2
81.2176308631897,-1005,-406,1683,95305,2
81.25661158561707,-911,-219,1649,95804,2
81.29648804664612,-740,-79,1584,96167,2
81.3368673324585,-690,26,1744,96373,2
81.37713861465454,-577,76,1657,96725,2
81.41661286354065,-492,101,1642,97043,2
81.4565122127533,-465,170,1814,97013,2
81.49664521217346,-388,194,1749,97216,2
81.53648781776428,-317,233,1696,97251,2
81.57661366462708,-266,276,1771,97386,2
81.61658096313477,-212,266,1548,97864,2
81.65661120414734,-227,204,1351,98147,2
81.69583654403687,-314,154,1333,98645,2
81.73563861846924,-343,-10,920,99182,2
81.77564477920532,-698,-312,1156,99178,2
81.81566739082336,-933,-393,1352,99308,2
81.85570406913757,-1132,-910,1265,99061,2
81.89581680297852,-1336,-1049,1501,97952,2
81.93551874160767,-1126,-1325,1284,96804,2
81.97571039199829,-1114,-1578,1114,95673,2
82.01567888259888,-1079,-1647,1037,93759,2
82.0555260181427,-1014,-1839,900,92090,2
82.09609484672546,-1056,-2095,815,90924,2
82.1356451511383,-1214,-2289,731,90732,2
82.174644947052,-1546,-2293,684,91264,2
82.21449899673462,-1823,-1921,603,90963,2
82.25449395179749,-1308,-1852,469,91013,2
82.29518747329712,-577,-1859,579,91267,2
82.33459568023682,-410,-1683,1194,91050,2
82.37451171875,-903,-1780,527,92248,2
82.41477060317993,-974,-1841,192,92800,2
82.45453429222107,-1043,-1829,419,91604,2
82.49483323097229,-1013,-1798,571,90525,2
82.534592628479,-987,-1769,515,89771,2
82.57461500167847,-894,-1841,381,89547,2
82.61365127563477,-807,-1854,319,89587,2
82.65362787246704,-724,-1878,316,89832,2
82.69372296333313,-589,-1817,476,90522,2
82.73360681533813,-733,-1816,511,90953,2
82.77363228797913,-640,-1867,651,91151,2
82.8137309551239,-722,-1850,676,90925,2
82.85364317893982,-775,-1832,645,90667,2
82.89362931251526,-805,-1811,562,90254,2
82.93363618850708,-845,-1771,523,89734,2
82.9738347530365,-866,-1754,531,89727,2
83.01366472244263,-889,-1738,500,89924,2
83.05362343788147,-921,-1721,505,90179,2
83.09261965751648,-956,-1739,516,90572,2
83.13259482383728,-950,-1731,561,90923,2
83.17260313034058,-948,-1744,623,90875,2
83.21285843849182,-998,-1888,671,90395,2
83.25269556045532,-850,-1817,481,90301,2
83.29268288612366,-893,-1750,568,90327,2
83.33260154724121,-912,-1763,533,90240,2
83.3726077079773,-929,-1785,539,89883,2
83.41270971298218,-875,-1773,508,89704,2
83.45265078544617,-862,-1787,519,89796,2
83.49259853363037,-855,-1798,517,89984,2
83.53160619735718,-878,-1775,525,90146,2
83.57162022590637,-868,-1776,512,90358,2
83.6120092868805,-860,-1780,515,90486,2
83.65163493156433,-852,-1790,526,90480,2
83.69167232513428,-855,-1807,497,90631,2
83.73163366317749,-845,-1802,497,90893,2
83.77161312103271,-826,-1805,516,91279,2
83.81397008895874,-833,-1796,522,91483,2
83.85163402557373,-836,-1780,527,91493,2
83.89184617996216,-853,-1799,496,91595,2
83.93161821365356,-858,-1794,528,91611,2
83.97161602973938,-867,-1792,517,91651,2
84.01071667671204,-846,-1785,516,91662,2
84.05061531066895,-848,-1784,506,91793,2
84.09061884880066,-844,-1788,514,91874,2
84.13060235977173,-859,-1787,517,91970,2
84.17061567306519,-843,-1811,504,91700,2
84.21061587333679,-861,-1770,515,91012,2
84.25061774253845,-859,-1768,492,90384,2
84.2906084060669,-832,-1780,504,89995,2
84.33060908317566,-856,-1805,499,89928,2
84.3706066608429,-871,-1777,529,89830,2
84.41074776649475,-852,-1770,523,89644,2
84.4505980014801,-849,-1789,520,89315,2
84.48960971832275,-848,-1803,517,88948,2
84.52962350845337,-844,-1781,491,88811,2
84.56961870193481,-825,-1788,491,88716,2
84.60961484909058,-853,-1809,501,88738,2
84.64979100227356,-862,-1789,508,88781,2
84.68961715698242,-830,-1796,494,88805,2
84.72961640357971,-844,-1796,507,88628,2
84.76959872245789,-842,-1793,517,88194,2
84.80961632728577,-836,-1806,490,87920,2
84.84973526000977,-839,-1808,484,87869,2
84.88963294029236,-838,-1792,503,88013,2
84.9286437034607,-851,-1792,515,88125,2
84.96860766410828,-856,-1797,507,88158,2
85.00861835479736,-843,-1796,492,88284,2
85.04862070083618,-839,-1796,476,88585,2
85.08860182762146,-841,-1787,487,88841,2
85.12885618209839,-838,-1814,504,89177,2
85.16861939430237,-849,-1819,465,89514,2
85.20860719680786,-823,-1775,518,89332,2
85.24860954284668,-857,-1801,499,89075,2
85.28861093521118,-777,-1806,490,88896,2
85.32880187034607,-863,-1805,487,89098,2
85.36761116981506,-823,-1790,495,89674,2
85.4076018333435,-821,-1799,491,90305,2
85.44764518737793,-879,-1793,559,90580,2
85.48765230178833,-811,-1812,550,90931,2
85.52783370018005,-816,-1811,457,91118,2
85.56767106056213,-808,-1780,553,91118,2
85.60762310028076,-874,-1781,564,91246,2
85.6476628780365,-847,-1794,510,91194,2
85.68764615058899,-821,-1788,553,91025,2
85.72774267196655,-841,-1786,575,90949,2
85.76902413368225,-873,-1768,565,90878,2
85.8075737953186,-861,-1777,569,90701,2
85.84661078453064,-862,-1764,570,90479,2
85.88659143447876,-872,-1746,579,90430,2
85.92659258842468,-840,-1734,568,90615,2
85.9665801525116,-847,-1720,606,90471,2
86.00667810440063,-842,-1715,784,89336,2
86.04705905914307,-747,-1668,1105,88929,2
86.08661699295044,-716,-1679,1227,89445,2
86.12660694122314,-906,-1581,1439,89456,2
86.16660118103027,-782,-1606,1375,89934,2
86.20682334899902,-660,-1557,1363,90775,2
86.2466230392456,-575,-1497,1316,91700,2
86.28668546676636,-430,-1446,1340,92971,2
86.32563018798828,-450,-1354,1300,94390,2
86.36560869216919,-397,-1238,1403,95110,2
86.40563726425171,-354,-1249,1452,95713,2
86.4461259841919,-405,-1152,1515,96292,2
86.48564577102661,-354,-1139,1638,96744,2
86.52561521530151,-300,-1091,1610,97052,2
86.56563830375671,-340,-1059,1721,96995,2
86.60559368133545,-200,-1021,1848,97163,2
86.64572811126709,-225,-961,1808,97484,2
86.68560791015625,-237,-942,1809,97607,2
86.72561764717102,-249,-883,1882,97705,2
86.76461005210876,-223,-829,1780,97903,2
86.80458402633667,-186,-801,1813,97989,2
86.84486961364746,-178,-799,1917,97771,2
86.88460803031921,-199,-756,1914,97430,2
86.92459034919739,-251,-736,1840,97166,2
86.96561932563782,-198,-700,1853,97178,2
87.00461220741272,-208,-694,1834,97531,2
87.04533267021179,-274,-683,1955,97839,2
87.08460807800293,-266,-693,1922,98351,2
87.12459659576416,-277,-703,1852,98708,2
87.16460108757019,-250,-705,1896,98899,2
87.2046115398407,-234,-728,1850,99214,2
87.24371385574341,-272,-756,1812,99552,2
87.28365397453308,-285,-761,1878,99886,2
87.323814868927,-352,-784,1805,100399,2
87.36368894577026,-376,-776,1799,100900,2
87.40362882614136,-373,-803,1923,101274,2
87.44363117218018,-359,-829,1833,101764,2
87.48369455337524,-397,-851,1847,102112,2
87.52372765541077,-408,-871,1843,102312,2
87.5636236667633,-357,-942,1728,102490,2
87.60361766815186,-345,-994,1788,102757,2
87.64374256134033,-449,-1049,1733,103013,2
87.68261241912842,-483,-1051,1685,103174,2
87.72261333465576,-533,-1047,1715,103207,2
87.76262426376343,-628,-1070,1670,103249,2
87.80267882347107,-653,-1090,1623,103309,2
87.84260559082031,-712,-1118,1690,103344,2
87.88261270523071,-741,-1131,1574,103386,2
87.92266988754272,-746,-1132,1477,103360,2
87.96282768249512,-742,-1148,1512,103294,2
88.00350832939148,-760,-1159,1463,103268,2
88.04265069961548,-764,-1168,1494,103238,2
88.08264493942261,-765,-1154,1532,103253,2
88.12263631820679,-959,-1119,1620,103370,2
88.1620044708252,-1381,-1027,1844,103515,2
88.20165729522705,-1970,-938,2174,103665,2
88.24163675308228,-2205,-1051,2255,103794,2
88.2816071510315,-2219,-1044,1948,103869,2
88.32161808013916,-2088,-906,1749,103885,2
88.36173725128174,-1765,-682,1578,103870,2
88.40166401863098,-1441,-506,1229,103836,2
88.44170260429382,-1160,-250,1048,103796,2
88.4816222190857,-1051,-91,971,103834,2
88.55078673362732,-979,154,1103,103784,2
88.5623688697815,-841,269,998,103776,2
88.60062789916992,-1092,443,1056,103838,2
88.64071869850159,-977,594,1135,103869,2
88.68063926696777,-1053,645,1039,103971,2
88.72066879272461,-1073,759,1091,104095,2
88.76080322265625,-1060,874,1125,104170,2
88.8006660938263,-1178,962,1206,104243,2
88.84064435958862,-1166,1025,1211,104285,2
88.88065576553345,-1154,1056,1192,104300,2
88.92060279846191,-1145,1077,1172,104297,2
88.96072912216187,-1186,1083,1182,104322,2
89.00062465667725,-1192,1092,1135,104313,2
89.04063510894775,-1179,1057,1116,104297,2
89.07983350753784,-1181,1038,1098,104263,2
89.11969017982483,-1177,993,1051,104221,2
89.1595983505249,-1210,975,994,104197,2
89.19960856437683,-1336,961,1013,104163,2
89.23959589004517,-1342,925,979,104304,2
89.27974367141724,-1310,856,943,104512,2
89.3196668624878,-1111,761,884,104633,2
89.35967016220093,-1110,670,927,104773,2
89.39960527420044,-1007,604,890,104869,2
89.43960571289062,-1065,489,970,104955,2
89.47986578941345,-1055,313,906,105102,2
89.5185899734497,-951,15,744,105175,2
89.55862307548523,-1330,-218,1089,105209,2
89.59861159324646,-1386,-523,1037,105155,2
89.63862919807434,-1529,-821,1345,105139,2
89.67870831489563,-1607,-1034,1458,105024,2
89.7186131477356,-1649,-1261,1412,105039,2
89.75872278213501,-1588,-1528,1193,105133,2
89.79873275756836,-1702,-1835,1124,105585,2
89.83871936798096,-1856,-1878,1171,106324,2
89.87880611419678,-1734,-1852,1097,106193,2
89.9187421798706,-2421,-1831,1636,105235,2
89.95871663093567,-1783,-1597,1251,105884,2
89.9978096485138,-1240,-1666,410,106480,2
90.03771758079529,-1056,-1588,330,106473,2
90.07824492454529,-935,-1606,488,106388,2
90.11774444580078,-1065,-1688,481,106264,2
90.15776801109314,-1112,-1702,501,106124,2
90.19789361953735,-1030,-1700,500,106050,2
90.23772764205933,-973,-1716,482,105752,2
90.27786612510681,-982,-1665,509,105283,2
90.31775832176208,-1009,-1667,525,104894,2
90.35779237747192,-1041,-1657,564,104570,2
90.39791440963745,-1091,-1670,506,104428,2
90.43673396110535,-1099,-1665,492,104333,2
90.47675228118896,-1091,-1663,475,104523,2
90.51669979095459,-1069,-1704,409,105330,2
90.55675458908081,-1053,-1712,426,105932,2
90.59676694869995,-1044,-1706,529,106070,2
90.63672542572021,-1040,-1743,457,106131,2
90.67671012878418,-1005,-1744,393,106166,2
90.7167501449585,-973,-1758,400,106100,2
90.75676131248474,-981,-1762,389,105971,2
90.7969491481781,-952,-1761,413,105855,2
90.8367075920105,-956,-1774,425,105830,2
90.87667679786682,-945,-1770,398,105910,2
90.91573905944824,-973,-1783,412,105888,2
90.95572185516357,-932,-1796,419,105851,2
90.99602746963501,-934,-1767,394,105838,2
91.03584408760071,-907,-1799,391,105868,2
91.07569098472595,-922,-1724,407,105980,2
91.1157546043396,-923,-1753,401,106264,2
91.15571856498718,-927,-1793,392,106553,2
91.19587087631226,-938,-1795,446,106550,2
91.23575067520142,-956,-1769,371,106381,2
91.27582001686096,-962,-1763,369,106341,2
91.31571245193481,-951,-1776,379,106472,2
91.35578560829163,-967,-1781,330,106616,2
91.3972156047821,-975,-1845,450,106751,2
91.43470644950867,-874,-1827,427,106787,2
91.474764585495,-951,-1701,354,107176,2
91.51479959487915,-954,-1770,404,107216,2
91.5546817779541,-903,-1805,358,107130,2
91.59502863883972,-893,-1782,279,106874,2
91.6348237991333,-995,-1771,325,106238,2
91.67471122741699,-968,-1791,438,106064,2
91.71485757827759,-948,-1789,306,106159,2
91.75470542907715,-940,-1798,301,106126,2
91.79516196250916,-937,-1778,347,106109,2
91.83468818664551,-965,-1792,324,106056,2
91.8740074634552,-933,-1788,344,105925,2
91.9137613773346,-952,-1765,371,105754,2
91.95373606681824,-946,-1793,270,105719,2
91.99374556541443,-949,-1758,354,105802,2
92.03371787071228,-984,-1746,374,105872,2
92.07372403144836,-988,-1759,306,105873,2
92.11431431770325,-971,-1765,358,105797,2
92.15373253822327,-984,-1760,346,105675,2
92.19372320175171,-958,-1758,331,105578,2
92.23372435569763,-981,-1774,327,105597,2
92.27374196052551,-971,-1770,339,105609,2
92.312917470932,-950,-1791,327,105689,2
92.35275435447693,-967,-1759,325,105710,2
92.39274716377258,-946,-1787,314,105695,2
92.43275547027588,-989,-1774,326,105625,2
92.47291326522827,-974,-1780,291,105649,2
92.5127215385437,-981,-1756,343,105607,2
92.55269265174866,-981,-1771,300,105613,2
92.59272170066833,-987,-1755,325,105520,2
92.63272404670715,-971,-1765,312,105433,2
92.67277193069458,-991,-1775,312,105359,2
92.71298503875732,-987,-1764,298,105291,2
92.75271701812744,-992,-1770,317,105240,2
92.79170656204224,-996,-1770,302,105216,2
92.83170223236084,-982,-1767,306,105160,2
92.8717622756958,-993,-1755,317,105101,2
92.91187310218811,-977,-1778,307,105119,2
92.95168781280518,-993,-1774,294,105111,2
92.99179673194885,-988,-1749,309,105079,2
93.03172183036804,-985,-1758,320,104983,2
93.07169461250305,-1023,-1770,307,104914,2
93.11255168914795,-995,-1765,318,104906,2
93.15179824829102,-968,-1773,321,104926,2
93.19177222251892,-974,-1773,316,104968,2
93.23175573348999,-972,-1785,308,104988,2
93.27124166488647,-956,-1779,300,105103,2
93.31079697608948,-975,-1777,326,105202,2
93.35071539878845,-972,-1777,323,105221,2
93.39068913459778,-961,-1776,291,105236,2
93.43073010444641,-953,-1785,278,105251,2
93.4706871509552,-967,-1776,315,105239,2
93.51073598861694,-975,-1783,302,105200,2
93.55074405670166,-985,-1768,330,105160,2
93.59069991111755,-974,-1775,316,105156,2
93.6307315826416,-990,-1772,309,105176,2
93.67069244384766,-968,-1780,283,105214,2
93.71070909500122,-970,-1772,307,105245,2
93.7497067451477,-962,-1777,295,105257,2
93.78979444503784,-966,-1772,310,105266,2
93.82970213890076,-971,-1780,303,105256,2
93.86970496177673,-960,-1772,322,105221,2
93.9096896648407,-978,-1785,291,105208,2
93.94981861114502,-975,-1782,318,105192,2
93.98969984054565,-973,-1772,308,105184,2
94.0297327041626,-973,-1778,309,105153,2
94.06988048553467,-980,-1779,304,105141,2
94.10974073410034,-949,-1774,292,105130,2
94.14976382255554,-972,-1785,309,105122,2
94.18973064422607,-989,-1767,321,105132,2
94.22890305519104,-972,-1791,327,105160,2
94.2688250541687,-968,-1786,304,105204,2
94.30872917175293,-946,-1772,306,105257,2
94.34869694709778,-961,-1795,299,105231,2
94.38870406150818,-1005,-1770,332,105181,2
94.42886018753052,-957,-1757,326,105124,2
94.46871018409729,-939,-1768,281,105093,2
94.50870728492737,-959,-1779,289,105047,2
94.54869818687439,-987,-1764,346,105071,2
94.58869981765747,-1020,-1726,389,105087,2
94.62927627563477,-1016,-1761,353,105079,2
94.66770148277283,-1004,-1762,322,105083,2
94.70787119865417,-970,-1766,326,105051,2
94.74770665168762,-926,-1789,318,105020,2
94.78770208358765,-931,-1792,312,105039,2
94.82774376869202,-956,-1783,319,105079,2
94.86774349212646,-983,-1777,350,105129,2
94.9076886177063,-999,-1755,356,105127,2
94.94769978523254,-998,-1772,367,105063,2
94.98772048950195,-985,-1770,328,104979,2
95.02774548530579,-954,-1770,326,104966,2
95.06768655776978,-955,-1773,330,104984,2
95.10769939422607,-963,-1773,332,105015,2
95.14671874046326,-970,-1763,349,104995,2
95.18734979629517,-985,-1777,347,105006,2
95.22674822807312,-979,-1751,354,104927,2
95.26669526100159,-980,-1761,343,104850,2
95.30677700042725,-1000,-1771,339,104806,2
95.34667563438416,-982,-1769,338,104806,2
95.38669633865356,-956,-1760,344,104786,2
95.4266939163208,-976,-1773,354,104744,2
95.46673679351807,-983,-1762,349,104692,2
95.53307271003723,-972,-1771,339,104673,2
95.55294561386108,-978,-1776,338,104679,2
95.58672833442688,-976,-1768,352,104719,2
95.62571597099304,-971,-1773,343,104742,2
95.66575813293457,-958,-1785,341,104749,2
95.7057716846466,-973,-1776,356,104768,2
95.74824547767639,-970,-1769,342,104780,2
95.78577947616577,-959,-1769,331,104809,2
95.82579064369202,-982,-1772,352,104834,2
95.86570620536804,-972,-1760,360,104826,2
95.90601849555969,-954,-1768,353,104800,2
95.9457859992981,-955,-1780,353,104727,2
95.98574209213257,-946,-1766,353,104649,2
96.02572131156921,-946,-1790,346,104542,2
96.06570601463318,-959,-1761,370,104424,2
96.10478067398071,-959,-1761,369,104266,2
96.14472985267639,-972,-1762,367,104188,2
96.18476104736328,-950,-1775,355,104213,2
96.22471380233765,-943,-1770,360,104232,2
96.26469850540161,-933,-1774,363,104265,2
96.3047513961792,-957,-1783,355,104284,2
96.34520816802979,-956,-1779,366,104246,2
96.38476705551147,-937,-1769,364,104215,2
96.42480778694153,-936,-1778,357,104201,2
96.46470189094543,-954,-1787,349,104238,2
96.50473666191101,-935,-1775,357,104239,2
96.54527425765991,-922,-1774,333,104292,2
96.5837893486023,-947,-1787,355,104355,2
96.6237964630127,-950,-1800,363,104402,2
96.66373205184937,-923,-1775,336,104415,2
96.70382237434387,-927,-1767,338,104427,2
96.7436933517456,-965,-1773,336,104471,2
96.78373289108276,-949,-1781,344,104470,2
96.82382035255432,-940,-1796,334,104493,2
96.86406111717224,-953,-1785,339,104390,2
96.90370655059814,-941,-1788,351,104352,2
96.94384336471558,-942,-1789,332,104361,2
96.98369455337524,-941,-1790,317,104402,2
97.02274346351624,-947,-1788,315,104457,2
97.06285452842712,-958,-1790,339,104501,2
97.10271072387695,-958,-1790,327,104540,2
97.1432945728302,-963,-1786,321,104581,2
97.18268585205078,-949,-1783,335,104616,2
97.2227714061737,-960,-1790,312,104670,2
97.2628583908081,-950,-1788,328,104703,2
97.3027012348175,-948,-1775,317,104720,2
97.34272861480713,-951,-1783,318,104707,2
97.38267946243286,-965,-1777,318,104697,2
97.42268538475037,-968,-1772,330,104702,2
97.46297883987427,-958,-1791,331,104730,2
97.50171875953674,-944,-1776,319,104765,2
97.5417308807373,-953,-1784,301,104790,2
97.58172369003296,-946,-1784,322,104800,2
97.62175345420837,-960,-1785,306,104797,2
97.66184496879578,-954,-1774,322,104724,2
97.70167851448059,-954,-1792,317,104686,2
97.74170303344727,-964,-1786,317,104699,2
97.7816834449768,-946,-1793,310,104683,2
97.82174944877625,-960,-1775,315,104691,2
97.86181807518005,-957,-1785,318,104671,2
97.90171194076538,-962,-1785,310,104683,2
97.94075727462769,-949,-1777,332,104710,2
97.9806923866272,-954,-1779,334,104709,2
98.0207576751709,-972,-1790,311,104720,2
98.0608446598053,-954,-1778,329,104796,2
98.10076570510864,-953,-1786,321,104832,2
98.1407585144043,-959,-1778,320,104833,2
98.18079829216003,-957,-1787,307,104850,2
98.2207555770874,-950,-1781,318,104823,2
98.26075387001038,-954,-1777,313,104810,2
98.30106854438782,-959,-1786,310,104809,2
98.3407347202301,-957,-1783,312,104769,2
98.3806881904602,-951,-1775,317,104763,2
98.41985988616943,-961,-1795,295,104757,2
98.45976209640503,-963,-1774,334,104690,2
98.49971866607666,-954,-1768,339,104649,2
98.5397081375122,-966,-1780,332,104610,2
98.57991647720337,-953,-1787,309,104566,2
98.61968851089478,-947,-1779,309,104533,2
98.65976333618164,-936,-1786,329,104532,2
98.69968771934509,-962,-1792,324,104459,2
98.73971962928772,-940,-1779,328,104355,2
98.7807867527008,-935,-1790,334,104292,2
98.81985759735107,-945,-1786,343,104341,2
98.85871744155884,-954,-1785,337,104392,2
98.89872765541077,-965,-1782,348,104409,2
98.93869423866272,-968,-1781,358,104468,2
98.97891163825989,-956,-1778,361,104551,2
99.01869559288025,-948,-1782,343,104574,2
99.05871534347534,-961,-1775,344,104598,2
99.0987138748169,-949,-1772,344,104601,2
99.1387186050415,-951,-1772,339,104612,2
99.179030418396,-937,-1773,346,104640,2
99.21878027915955,-934,-1809,341,104627,2
99.25877547264099,-948,-1782,360,104589,2
99.29872703552246,-921,-1777,368,104525,2
99.33773350715637,-939,-1798,342,104524,2
99.37770342826843,-926,-1795,349,104590,2
99.41769647598267,-918,-1776,344,104607,2
99.45772814750671,-919,-1776,366,104603,2
99.49771022796631,-939,-1799,355,104617,2
99.53771328926086,-955,-1786,348,104645,2
99.57773756980896,-932,-1778,376,104630,2
99.61776733398438,-933,-1786,344,104612,2
99.65775895118713,-952,-1789,375,104581,2
99.6977150440216,-937,-1797,362,104535,2
99.73779487609863,-919,-1775,372,104527,2
99.7767174243927,-897,-1795,296,104577,2
99.81674909591675,-943,-1783,334,104661,2
99.85674548149109,-975,-1761,406,104719,2
99.89681124687195,-966,-1753,406,104750,2
99.93670463562012,-959,-1776,350,104758,2
99.97672200202942,-930,-1792,332,104752,2
100.01671624183655,-933,-1804,313,104734,2
100.05670523643494,-937,-1778,375,104628,2
100.09697246551514,-935,-1776,376,104569,2
100.13672113418579,-952,-1785,361,104556,2
100.17693448066711,-949,-1792,353,104547,2
100.21677613258362,-946,-1762,341,104486,2
100.2557282447815,-947,-1775,360,104488,2
100.29606342315674,-966,-1776,347,104551,2
100.33591222763062,-946,-1768,350,104615,2
100.37586212158203,-948,-1779,355,104670,2
100.41575336456299,-965,-1792,380,104711,2
100.45574855804443,-954,-1792,356,104717,2
100.49573874473572,-936,-1779,346,104677,2
100.5359559059143,-946,-1773,360,104574,2
100.57571315765381,-958,-1774,334,104436,2
100.61574745178223,-951,-1769,339,104357,2
100.6557469367981,-935,-1779,353,104384,2
100.69481873512268,-938,-1783,386,104401,2
100.73472595214844,-946,-1794,347,104392,2
100.77473902702332,-922,-1783,347,104406,2
100.81471848487854,-942,-1787,318,104427,2
100.85473728179932,-962,-1763,344,104357,2
100.89472794532776,-964,-1765,354,104278,2
100.93478345870972,-966,-1776,357,104253,2
100.97483420372009,-946,-1777,342,104233,2
101.01474595069885,-935,-1794,336,104180,2
101.05476307868958,-954,-1782,345,104146,2
101.09484314918518,-960,-1787,342,104164,2
101.13491559028625,-968,-1783,342,104203,2
101.17372107505798,-966,-1778,347,104309,2
101.21397066116333,-1111,-1740,476,104422,2
101.25373721122742,-1265,-1802,795,104512,2
101.29376339912415,-1660,-1767,1164,104647,2
101.33381533622742,-2037,-1713,1514,104782,2
101.37373542785645,-2018,-1780,1473,104936,2
101.41379857063293,-1998,-1685,1611,104988,2
101.4537706375122,-1930,-1621,1686,104973,2
101.49380087852478,-1820,-1488,1660,104966,2
101.53431177139282,-1534,-1139,1613,104949,2
101.57378029823303,-1264,-882,1491,105023,2
101.61375069618225,-959,-612,1311,105148,2
101.65277433395386,-648,-305,1212,105261,2
101.6927261352539,-525,-26,1118,105374,2
101.73276925086975,-482,225,1149,105427,2
101.77271032333374,-356,407,1202,105545,2
101.81291031837463,-393,602,1336,105606,2
101.85278534889221,-380,731,1503,105698,2
101.89274001121521,-327,858,1524,105713,2
101.93347454071045,-404,961,1664,105699,2
101.97292375564575,-369,1008,1694,105752,2
102.01326560974121,-395,1079,1615,105773,2
102.05276203155518,-452,1149,1689,105877,2
102.09176278114319,-511,1182,1544,105991,2
102.13173651695251,-568,1208,1477,106049,2
102.17173719406128,-567,1216,1465,106126,2
102.21195530891418,-563,1241,1405,106178,2
102.25176310539246,-633,1278,1452,106173,2
102.29179120063782,-586,1319,1426,106192,2
102.33174085617065,-570,1342,1337,106232,2
102.3717405796051,-592,1331,1335,106216,2
102.44324493408203,-536,1313,1152,106220,2
102.45211505889893,-588,1356,1192,106242,2
102.49179124832153,-764,1430,1248,106210,2
102.53198051452637,-869,1523,1243,106171,2
102.5708920955658,-996,1547,1113,106160,2
102.61081600189209,-935,1543,970,106122,2
102.65077590942383,-941,1572,966,106134,2
102.6909122467041,-1032,1580,892,106160,2
102.73073244094849,-988,1589,720,106246,2
102.77078580856323,-1095,1582,634,106322,2
102.81087327003479,-1139,1566,648,106328,2
102.85073590278625,-1133,1536,499,106309,2
102.8907561302185,-1146,1549,450,106286,2
102.93074464797974,-1148,1547,412,106307,2
102.97079467773438,-1145,1587,380,106330,2
103.00977683067322,-1195,1619,402,106348,2
103.04987955093384,-1112,1627,395,106336,2
103.0898118019104,-1124,1639,386,106275,2
103.12996220588684,-1102,1638,385,106281,2
103.16981983184814,-1096,1643,366,106296,2
103.21001434326172,-1037,1633,391,106270,2
103.24981641769409,-1041,1615,346,106244,2
103.28981018066406,-1011,1624,393,106146,2
103.32978773117065,-938,1620,422,106059,2
103.36997103691101,-1021,1619,397,106020,2
103.4098629951477,-1065,1677,455,105999,2
103.44981050491333,-1085,1713,529,106049,2
103.48885488510132,-1082,1704,499,106033,2
103.52900719642639,-1005,1695,485,105906,2
103.56875538825989,-842,1659,566,105689,2
103.60882663726807,-892,1672,729,105509,2
103.64884042739868,-884,1658,818,105484,2
103.68878865242004,-639,1636,1001,105433,2
103.72946214675903,-395,1603,1101,105469,2
103.76875638961792,-268,1588,1260,105521,2
103.80880498886108,-268,1594,1315,105570,2
103.84877347946167,-165,1587,1347,105657,2
103.88883137702942,-168,1588,1331,105811,2
103.92779874801636,-133,1588,1396,105862,2
103.96774387359619,-94,1580,1342,105900,2
104.00775694847107,-72,1555,1323,105956,2
104.04770302772522,-10,1532,1320,106093,2
104.08780360221863,148,1470,1143,106475,2
104.12785196304321,48,1393,1130,107053,2
104.1678204536438,116,1389,1462,107564,2
104.20783925056458,140,1383,1397,107926,2
104.24786710739136,-104,1389,1596,107978,2
104.2877905368805,-60,1356,1719,108098,2
104.32784724235535,2,1343,1567,108265,2
104.36779356002808,-6,1308,1634,108396,2
104.40683698654175,117,1274,1596,108614,2
104.44696617126465,221,1290,1453,108980,2
104.4867479801178,341,1153,1635,109147,2
104.52678608894348,544,1064,1821,108938,2
104.5669777393341,590,955,1685,108725,2
104.60676097869873,529,1009,2080,108506,2
104.64675450325012,757,715,1844,108488,2
104.6867823600769,925,561,1618,108348,2
104.72673296928406,1200,496,1648,108169,2
104.76693487167358,1326,452,1470,108077,2
104.80675339698792,1458,425,1493,108033,2
104.84579706192017,1528,412,1477,108032,2
104.88574266433716,1542,356,1420,108122,2
104.92576551437378,1476,363,1460,108257,2
104.9657506942749,1436,353,1358,108445,2
105.0057442188263,1453,408,1265,108544,2
105.04656887054443,1516,446,1221,108580,2
105.08586359024048,1558,402,1182,108623,2
105.12574696540833,1587,407,1115,108675,2
105.16574907302856,1615,390,1106,108741,2
105.20575451850891,1567,432,1194,108781,2
105.24624562263489,1551,427,1217,108848,2
105.28481125831604,1548,470,1216,108981,2
105.32477307319641,1520,500,1186,109074,2
105.3648054599762,1562,518,1235,109125,2
105.40474820137024,1621,460,1248,109164,2
105.44494581222534,1653,457,1262,109200,2
105.4856448173523,1609,463,1220,109268,2
105.5247631072998,1590,463,1200,109310,2
105.56474661827087,1526,479,1199,109362,2
105.60474395751953,1510,494,1153,109140,2
105.64537405967712,1476,465,1059,108723,2
105.68475580215454,1597,431,900,108478,2
105.72474455833435,1727,374,905,108279,2
105.7637836933136,1541,324,957,108087,2
105.80385780334473,1209,287,903,108034,2
105.84378623962402,592,167,1059,108098,2
105.88376927375793,-58,261,1137,108144,2
105.92376613616943,-429,165,947,108119,2
105.96377754211426,-1136,112,1318,108093,2
106.00379395484924,-1366,-26,1497,107811,2
106.04383039474487,-1325,-123,1196,107338,2
106.08380460739136,-1504,-278,1165,107147,2
106.12379765510559,-1647,-454,1595,106976,2
106.1637876033783,-1571,-699,1810,106801,2
106.20284986495972,-1652,-931,1807,106725,2
106.24281740188599,-1760,-1155,1895,106675,2
106.28279495239258,-1647,-1291,1615,106628,2
106.32281303405762,-1611,-1420,1383,106509,2
106.36284685134888,-1562,-1536,1364,106363,2
106.40282893180847,-1439,-1543,1295,106251,2
106.44286489486694,-1288,-1617,1226,106097,2
106.48290157318115,-1191,-1688,1231,105919,2
106.52283716201782,-1172,-1706,1231,105854,2
106.56312799453735,-1217,-1714,1193,105780,2
106.60280394554138,-1158,-1692,1096,105700,2
106.64180040359497,-991,-1673,991,105552,2
106.68180060386658,-857,-1721,911,105351,2
106.72178936004639,-801,-1737,808,105042,2
106.76268887519836,-764,-1733,746,104748,2
106.8019232749939,-771,-1756,721,104620,2
106.84180355072021,-735,-1740,752,104691,2
106.8819363117218,-725,-1757,724,104782,2
106.92190551757812,-724,-1763,669,104829,2
106.96211791038513,-767,-1766,611,104855,2
107.00177121162415,-787,-1788,556,104767,2
107.04192042350769,-819,-1775,540,104795,2
107.08178043365479,-822,-1762,587,104766,2
107.12078404426575,-841,-1784,615,104719,2
107.1608817577362,-872,-1792,596,104708,2
107.20083832740784,-892,-1782,612,104674,2
107.24086785316467,-875,-1790,598,104642,2
107.28086829185486,-843,-1787,590,104697,2
107.32079100608826,-841,-1780,576,104775,2
107.36079025268555,-812,-1770,621,104821,2
107.40080761909485,-816,-1797,589,104786,2
107.44083094596863,-776,-1791,601,104829,2
107.48077201843262,-800,-1808,576,104859,2
107.5209174156189,-776,-1810,566,104859,2
107.55984210968018,-796,-1855,529,104849,2
107.59982490539551,-796,-1852,550,104730,2
107.63980221748352,-869,-1770,690,104573,2
107.68021774291992,-855,-1758,704,104593,2
107.71983695030212,-824,-1799,541,104694,2
107.75983428955078,-839,-1786,483,104728,2
107.79984450340271,-768,-1774,517,104695,2
107.8398494720459,-740,-1784,501,104703,2
107.8801040649414,-758,-1769,490,104707,2
107.9198157787323,-754,-1787,516,104688,2
107.9598023891449,-746,-1803,497,104748,2
107.99981784820557,-778,-1781,525,104780,2
108.03881549835205,-813,-1757,616,104790,2
108.07910633087158,-785,-1763,611,104840,2
108.11880922317505,-798,-1802,595,104947,2
108.158846616745,-793,-1791,644,105008,2
108.1987898349762,-829,-1805,622,105006,2
108.23881602287292,-851,-1812,589,105006,2
108.27915954589844,-858,-1792,598,104954,2
108.31878471374512,-876,-1766,611,104845,2
108.3588011264801,-868,-1779,549,104810,2
108.39933180809021,-852,-1779,528,104743,2
108.43886232376099,-863,-1814,515,104724,2
108.47784304618835,-874,-1771,565,104531,2
108.5178771018982,-849,-1771,592,104322,2
108.55782294273376,-864,-1747,568,104352,2
108.59785032272339,-847,-1777,544,104440,2
108.637855052948,-820,-1789,501,104508,2
108.67917346954346,-817,-1821,497,104602,2
108.71784591674805,-855,-1793,587,104669,2
108.75783181190491,-848,-1808,599,104637,2
108.79781198501587,-846,-1794,537,104561,2
108.83779954910278,-825,-1800,512,104440,2
108.87778925895691,-847,-1781,499,104455,2
108.91782879829407,-845,-1801,474,104517,2
108.95679926872253,-815,-1827,469,104580,2
108.99722290039062,-815,-1818,508,104604,2
109.03690123558044,-841,-1797,562,104630,2
109.07680010795593,-831,-1781,570,104678,2
109.11679315567017,-836,-1782,541,104699,2
109.1568214893341,-834,-1805,496,104669,2
109.19684410095215,-810,-1804,492,104662,2
109.2367992401123,-824,-1826,479,104644,2
109.2768042087555,-815,-1800,519,104522,2
109.31682443618774,-817,-1801,539,104383,2
109.35683941841125,-804,-1812,544,104373,2
109.42091774940491,-818,-1817,521,104389,2
109.4359302520752,-810,-1817,478,104349,2
109.47584342956543,-797,-1808,492,104341,2
109.51582741737366,-806,-1802,506,104379,2
109.55585289001465,-844,-1794,512,104437,2
109.59597039222717,-818,-1810,502,104457,2
109.63586068153381,-818,-1817,511,104440,2
109.67586374282837,-808,-1825,513,104475,2
109.71588659286499,-811,-1819,496,104484,2
109.75579762458801,-813,-1801,500,104468,2
109.7967176437378,-817,-1808,476,104430,2
109.83581686019897,-816,-1810,469,104400,2
109.87488293647766,-856,-1817,480,104393,2
109.91492319107056,-849,-1806,491,104348,2
109.95517182350159,-843,-1797,500,104357,2
109.99486088752747,-848,-1809,492,104391,2
110.03562211990356,-835,-1803,506,104363,2
110.07481026649475,-833,-1826,481,104297,2
110.11489605903625,-851,-1804,498,104049,2
110.15508437156677,-826,-1799,491,103707,2
110.1951653957367,-814,-1813,471,103541,2
110.23484873771667,-833,-1810,450,103396,2
110.27499461174011,-822,-1819,441,103310,2
110.31395816802979,-816,-1800,461,103299,2
110.35388708114624,-833,-1810,447,103443,2
110.39391088485718,-846,-1821,449,103539,2
110.433828830719,-834,-1813,489,103628,2
110.4740993976593,-821,-1829,490,103713,2
110.51406240463257,-830,-1831,479,103781,2
110.55386924743652,-823,-1808,460,103944,2
110.59385418891907,-830,-1812,456,104074,2
110.63385534286499,-807,-1822,461,104111,2
110.673819065094,-857,-1805,478,104093,2
110.71392345428467,-868,-1803,479,104141,2
110.7538571357727,-843,-1818,428,104246,2
110.7928376197815,-821,-1819,441,104312,2
110.8328320980072,-831,-1822,442,104352,2
110.87288570404053,-816,-1818,457,104367,2
110.91339945793152,-849,-1845,445,104347,2
110.95297527313232,-834,-1814,441,104232,2
110.99284625053406,-830,-1816,458,104139,2
111.03284764289856,-832,-1823,450,104125,2
111.07283854484558,-831,-1822,427,104073,2
111.11285781860352,-828,-1818,435,104021,2
111.15289330482483,-816,-1823,451,103985,2
111.19316959381104,-819,-1846,422,104004,2
111.23193550109863,-830,-1830,430,103990,2
111.27190971374512,-824,-1823,454,104022,2
111.31264781951904,-828,-1821,471,104059,2
111.35185241699219,-836,-1813,485,104085,2
111.39183378219604,-822,-1838,440,104091,2
111.4320707321167,-814,-1818,419,104114,2
111.47212505340576,-821,-1811,434,104133,2
111.5121865272522,-833,-1824,449,104122,2
111.5519630908966,-837,-1823,465,104049,2
111.59208083152771,-826,-1825,431,104029,2
111.63203501701355,-812,-1824,430,104057,2
111.67179584503174,-803,-1824,440,104060,2
111.71089243888855,-818,-1846,433,104033,2
111.75078868865967,-805,-1824,453,103844,2
111.7908205986023,-794,-1832,457,103664,2
111.8308367729187,-825,-1844,473,103589,2
111.87081027030945,-792,-1843,471,103497,2
111.91087889671326,-770,-1827,447,103429,2
111.9508945941925,-771,-1840,424,103443,2
111.99081754684448,-790,-1839,402,103408,2
112.03101634979248,-784,-1839,408,103338,2
112.07081341743469,-784,-1823,438,103314,2
112.1108045578003,-801,-1855,448,103386,2
112.15084052085876,-818,-1840,467,103494,2
112.18981671333313,-803,-1840,489,103597,2
112.23000741004944,-788,-1840,451,103618,2
112.26978063583374,-769,-1845,441,103599,2
112.3100323677063,-774,-1836,447,103614,2
112.34983563423157,-768,-1832,427,103610,2
112.38988304138184,-776,-1838,418,103618,2
112.4298186302185,-765,-1841,428,103642,2
112.46994423866272,-784,-1852,407,103597,2
112.50981378555298,-797,-1812,437,103321,2
112.54987263679504,-776,-1815,461,103135,2
112.58992075920105,-804,-1841,478,103190,2
112.62897992134094,-811,-1842,456,103251,2
112.66887021064758,-727,-1837,427,103287,2
112.70886182785034,-750,-1822,452,103360,2
112.74902653694153,-795,-1815,516,103417,2
112.7889256477356,-802,-1836,468,103507,2
112.82911038398743,-788,-1861,431,103638,2
112.86883163452148,-830,-1837,475,103758,2
112.90886235237122,-856,-1799,528,103833,2
112.94884395599365,-873,-1777,517,103819,2
112.98892045021057,-902,-1774,517,103758,2
113.02911257743835,-891,-1787,492,103618,2
113.06884217262268,-845,-1791,477,103461,2
113.10784196853638,-798,-1792,464,103358,2
113.148193359375,-787,-1792,478,103298,2
113.18783664703369,-753,-1825,482,103278,2
113.22787547111511,-779,-1832,468,103135,2
113.26788020133972,-821,-1798,473,102885,2
113.30786752700806,-855,-1789,486,102926,2
113.3478581905365,-871,-1803,500,103112,2
113.38795328140259,-896,-1786,522,103249,2
113.42792534828186,-896,-1783,536,103348,2
113.46786260604858,-872,-1804,544,103435,2
113.5079231262207,-896,-1794,530,103469,2
113.54795169830322,-861,-1790,520,103477,2
113.58688116073608,-845,-1783,495,103510,2
113.62684941291809,-850,-1793,500,103559,2
113.66682887077332,-861,-1801,509,103652,2
113.70688843727112,-877,-1806,523,103740,2
113.74691152572632,-859,-1775,532,103798,2
113.78688669204712,-870,-1787,513,103828,2
113.8269031047821,-879,-1768,515,103801,2
113.86696076393127,-863,-1778,528,103699,2
113.90686583518982,-839,-1788,518,103620,2
113.94718194007874,-843,-1777,503,103613,2
113.98685479164124,-818,-1790,511,103577,2
114.02588486671448,-852,-1802,506,103444,2
114.06587648391724,-854,-1797,523,103177,2
