Timestamp,AccX,AccY,AccZ,Heart_IR,Phase
0.03313946723937988,-623,-373,1862,103980,0
0.07048964500427246,-553,-299,1849,104013,0
0.11047697067260742,-553,-342,1867,104023,0
0.15047430992126465,-568,-382,1897,104017,0
0.19053936004638672,-597,-431,1972,103891,0
0.23069262504577637,-638,-465,2036,103812,0
0.2705078125,-624,-412,1943,103807,0
0.3104681968688965,-595,-332,1907,103833,0
0.3504822254180908,-583,-302,1915,103815,0
0.3905057907104492,-535,-305,1927,103808,0
0.4306633472442627,-522,-311,2030,103813,0
0.47049617767333984,-513,-343,2118,103831,0
0.5096280574798584,-445,-243,2262,103837,0
0.5496125221252441,-405,-247,2271,103865,0
0.5899617671966553,-380,-248,2294,103893,0
0.6302096843719482,-311,-288,2076,103945,0
0.6694676876068115,-314,-357,1890,103969,0
0.7095186710357666,-411,-390,1875,103957,0
0.7498219013214111,-319,-331,1885,103955,0
0.789865255355835,-358,-354,1752,103959,0
0.8296825885772705,-287,-324,1714,103946,0
0.8694970607757568,-156,-281,1790,103943,0
0.9094557762145996,-196,-273,1890,103970,0
0.9487595558166504,-146,-268,1935,103971,0
0.9886374473571777,-142,-220,2035,103982,0
1.0284125804901123,-151,-271,2040,104008,0
1.068399429321289,-231,-254,2067,104017,0
1.1089603900909424,-216,-254,2073,104044,0
1.1491241455078125,-207,-234,2013,104025,0
1.1887316703796387,-217,-272,2016,103968,0
1.2284140586853027,-219,-264,2055,103851,0
1.2683994770050049,-211,-267,2008,103783,0
1.3084235191345215,-186,-270,2044,103824,0
1.3479423522949219,-173,-297,2009,103870,0
1.3874549865722656,-187,-324,2027,103867,0
1.4273481369018555,-166,-308,2021,103901,0
1.4673171043395996,-180,-287,1994,103916,0
1.5073020458221436,-206,-297,2016,103926,0
1.5479466915130615,-232,-279,2078,103926,0
1.5875577926635742,-135,-260,2086,103950,0
1.6272928714752197,-194,-303,2014,103918,0
1.6672918796539307,-266,-312,2043,103920,0
1.707303762435913,-283,-299,2003,103927,0
1.7482798099517822,-263,-279,1989,103939,0
1.7863197326660156,-191,-263,2021,103949,0
1.8262877464294434,-243,-270,2070,103969,0
1.8662519454956055,-280,-285,1980,103987,0
1.9063327312469482,-322,-275,1966,104000,0
1.9464895725250244,-306,-272,1987,104026,0
1.9863059520721436,-273,-253,1977,104013,0
2.0263092517852783,-262,-255,2058,103998,0
2.066309928894043,-238,-278,2068,103959,0
2.1063475608825684,-219,-273,2027,103957,0
2.146731376647949,-229,-258,2031,103966,0
2.186363458633423,-238,-282,1968,103943,0
2.2252516746520996,-238,-282,2002,103833,0
2.2653162479400635,-216,-270,2052,103828,0
2.305290699005127,-218,-261,1997,103871,0
2.3452892303466797,-224,-265,2034,103918,0
2.385291814804077,-248,-254,2036,103943,0
2.4252896308898926,-244,-253,1998,103936,0
2.4653148651123047,-243,-247,2047,103921,0
2.5053610801696777,-268,-260,2003,103905,0
2.545445680618286,-241,-229,2023,103870,0
2.585287094116211,-264,-250,2036,103885,0
2.6253209114074707,-228,-259,2011,103921,0
2.6645798683166504,-254,-248,2017,103939,0
2.704312562942505,-251,-269,1997,103947,0
2.744300603866577,-239,-248,2020,103980,0
2.7843544483184814,-233,-252,2017,103993,0
2.824277639389038,-230,-249,2037,103988,0
2.8643789291381836,-232,-241,2034,103973,0
2.904284954071045,-253,-246,2022,103946,0
2.9442944526672363,-248,-237,2032,103937,0
2.984307289123535,-239,-227,2058,103927,0
3.0242929458618164,-285,-250,2027,103928,0
3.064314126968384,-261,-245,1994,103966,0
3.1033105850219727,-238,-245,1989,103941,0
3.143272876739502,-277,-240,1992,103856,0
3.1832923889160156,-265,-233,1994,103819,0
3.2233874797821045,-232,-245,2002,103857,0
3.263514995574951,-265,-244,2060,103879,0
3.3033180236816406,-219,-252,1998,103855,0
3.343296527862549,-239,-207,2047,103822,0
3.383349657058716,-215,-235,1999,103822,0
3.4232985973358154,-270,-237,2042,103811,0
3.4633445739746094,-249,-232,2029,103821,0
3.5023443698883057,-230,-224,2020,103860,0
3.542299509048462,-243,-249,2048,103882,0
3.582606077194214,-240,-233,2025,103905,0
3.622300624847412,-239,-228,2024,103914,0
3.662301778793335,-231,-254,1997,103941,0
3.702301025390625,-250,-238,1983,103947,0
3.7423105239868164,-254,-236,2000,103940,0
3.782287359237671,-259,-224,1999,103921,0
3.8223137855529785,-251,-231,2024,103893,0
3.862445831298828,-239,-223,2035,103903,0
3.9022910594940186,-254,-229,2015,103917,0
3.9413540363311768,-255,-229,2036,103943,0
3.9813144207000732,-246,-236,2025,103971,0
4.021401882171631,-272,-205,2002,103993,0
4.061378479003906,-242,-211,1982,103981,0
4.101361989974976,-298,-258,2019,103900,0
4.141333818435669,-276,-239,2067,103821,0
4.181355953216553,-217,-221,1986,103810,0
4.221303701400757,-243,-253,2059,103806,0
4.261279582977295,-237,-245,2004,103806,0
4.301252841949463,-231,-238,2013,103795,0
4.34125542640686,-269,-257,2018,103822,0
4.380506992340088,-279,-234,2028,103846,0
4.420295238494873,-225,-229,2004,103868,0
4.4603190422058105,-248,-217,2019,103904,0
4.500254154205322,-263,-224,2040,103919,0
4.540309906005859,-300,-227,2053,103945,0
4.5806190967559814,-224,-243,2007,103938,0
4.620264530181885,-266,-220,2014,103921,0
4.660308599472046,-239,-212,1980,103917,0
4.700336456298828,-224,-219,2024,103910,0
4.740263223648071,-236,-258,2009,103922,0
4.7805564403533936,-255,-251,2020,103951,0
4.819304943084717,-226,-224,1994,103984,0
4.85926079750061,-233,-222,2022,103993,0
4.899263620376587,-262,-246,2040,104022,0
4.939268112182617,-271,-242,2053,104030,0
4.979430437088013,-259,-249,2041,104034,0
5.019301652908325,-235,-234,2032,104034,0
5.059293746948242,-240,-268,1985,103953,0
5.0992748737335205,-257,-243,2033,103831,0
5.1392822265625,-243,-238,1987,103780,0
5.179530620574951,-234,-239,2021,103800,0
5.21928071975708,-259,-237,2029,103858,0
5.258371829986572,-274,-230,2016,103870,0
5.298292636871338,-228,-221,2000,103873,0
5.338375806808472,-257,-227,2022,103894,0
5.3783369064331055,-260,-255,2039,103887,0
5.418271064758301,-237,-248,2056,103924,0
5.458319664001465,-222,-224,1992,103943,0
5.498286247253418,-256,-241,2012,103930,0
5.538414478302002,-269,-256,2010,103923,0
5.578453302383423,-249,-242,2033,103889,0
5.6182944774627686,-237,-244,1991,103901,0
5.657337665557861,-221,-238,2056,103916,0
5.697276830673218,-200,-230,2004,103966,0
5.737276554107666,-247,-237,2039,104003,0
5.777318239212036,-270,-234,1993,104046,0
5.81727147102356,-266,-249,2024,104063,0
5.85726523399353,-265,-239,2030,104083,0
5.897268295288086,-251,-234,2007,104072,0
5.937300682067871,-245,-249,2070,104052,0
5.977270841598511,-236,-230,1990,104049,0
6.017284631729126,-280,-242,2023,103957,0
6.0573341846466064,-278,-262,2031,103908,0
6.0965576171875,-246,-243,2019,103950,0
6.136281490325928,-245,-261,2006,104016,0
6.176333427429199,-236,-236,2026,104047,0
6.216301202774048,-242,-241,1993,104049,0
6.256319284439087,-246,-243,2016,104044,0
6.296627044677734,-272,-247,2043,104044,0
6.336379528045654,-237,-253,1995,104041,0
6.3763203620910645,-221,-237,2045,104036,0
6.416285276412964,-240,-254,2021,104045,0
6.456328630447388,-266,-262,2017,104060,0
6.495286703109741,-254,-240,2037,104095,0
6.535323619842529,-234,-240,2007,104109,0
6.575275421142578,-255,-223,2034,104123,0
6.615255117416382,-236,-254,1997,104134,0
6.655292272567749,-265,-235,2043,104158,0
6.695300340652466,-234,-246,2002,104152,0
6.73529839515686,-233,-237,2052,104131,0
6.775410890579224,-214,-228,1993,104109,0
6.815438508987427,-246,-241,2010,104092,0
6.855304718017578,-213,-222,1994,104081,0
6.902371406555176,-214,-247,1995,104105,0
6.934511423110962,-248,-249,2014,104116,0
6.974287748336792,-268,-274,2022,104064,0
7.014397859573364,-244,-224,2016,104006,0
7.054310083389282,-254,-231,2050,103971,0
7.094315528869629,-259,-253,2078,103996,0
7.134330987930298,-227,-227,2016,104005,0
7.174344778060913,-234,-246,2036,103951,0
7.214447498321533,-237,-251,2033,103968,0
7.254291534423828,-249,-241,2004,103953,0
7.294281721115112,-206,-237,2011,103987,0
7.333302974700928,-234,-250,2005,104011,0
7.373299598693848,-230,-261,2004,104039,0
7.4134156703948975,-241,-236,2040,104082,0
7.453309535980225,-267,-234,2030,104102,0
7.493293285369873,-262,-223,2018,104112,0
7.533283710479736,-216,-226,2040,104114,0
7.573529481887817,-202,-225,2011,104108,0
7.613457202911377,-200,-247,2001,104093,0
7.653313159942627,-206,-228,2015,104050,0
7.693284273147583,-225,-231,1992,104064,0
7.733020782470703,-242,-223,2027,104089,0
7.772896766662598,-239,-229,2018,104108,0
7.812449216842651,-236,-231,2075,104124,0
7.852445840835571,-243,-239,2043,104148,0
7.8923139572143555,-227,-208,2021,104170,0
7.932307958602905,-241,-242,1960,104148,0
7.972320556640625,-273,-226,2047,104020,0
8.013065576553345,-242,-218,1997,103932,0
8.052358388900757,-209,-225,2038,103934,0
8.092289686203003,-213,-237,2036,103946,0
8.132303953170776,-253,-248,2045,103959,0
8.17212176322937,-208,-235,2014,103997,0
8.211323022842407,-221,-221,1991,104014,0
8.251328945159912,-217,-229,2005,104026,0
8.291544675827026,-246,-231,2041,104033,0
8.331334590911865,-238,-212,2074,104076,0
8.371305704116821,-244,-217,2016,104086,0
8.41135859489441,-272,-231,2078,104076,0
8.451329946517944,-238,-239,2010,104071,0
8.491763830184937,-210,-219,2021,104074,0
8.531535148620605,-237,-233,1997,104069,0
8.57132077217102,-238,-226,2078,104091,0
8.610374450683594,-219,-241,2065,104116,0
8.650320291519165,-214,-223,2018,104137,0
8.69031834602356,-233,-222,1956,104160,0
8.7303307056427,-267,-219,2028,104162,0
8.770315170288086,-202,-220,2023,104181,0
8.810389280319214,-209,-239,2045,104166,0
8.850338220596313,-193,-213,1990,104152,0
8.890356302261353,-217,-205,1997,104099,0
8.930309057235718,-265,-210,2071,103942,0
8.970336437225342,-345,-236,2029,103898,0
9.009388446807861,-237,-249,2059,103928,0
9.049296140670776,-276,-207,2007,103991,0
9.089328527450562,-240,-204,1966,103985,0
9.129517316818237,-237,-193,2005,104024,0
9.169350385665894,-222,-196,1999,104025,0
9.209360837936401,-304,-184,2024,104028,0
9.250113725662231,-298,-205,2053,104018,0
9.289356708526611,-277,-195,2043,104006,0
9.330049276351929,-268,-210,2030,104008,0
9.369518280029297,-271,-227,2066,103991,0
9.409341096878052,-276,-240,2072,104011,0
9.448323011398315,-257,-202,2102,104034,0
9.488367557525635,-220,-180,2051,104062,0
9.528339385986328,-178,-155,2030,104092,0
9.568337678909302,-139,-135,2057,104134,0
9.608335971832275,-237,-171,1954,104165,0
9.648324966430664,-264,-158,1995,104175,0
9.688314199447632,-280,-158,2017,104167,0
9.72849416732788,-266,-151,1936,104140,0
9.768341779708862,-287,-170,2006,104113,0
9.808339834213257,-265,-175,2062,104107,0
9.848326444625854,-207,-206,1991,104075,0
9.88733434677124,-214,-185,2024,103964,0
9.927320003509521,-211,-160,1984,103917,0
9.967350721359253,-231,-186,1991,103951,0
10.007320880889893,-268,-200,2024,103990,0
10.047341108322144,-195,-216,1980,103996,0
10.08731985092163,-186,-188,1987,104007,0
10.127342462539673,-235,-203,2010,104010,0
10.167324542999268,-253,-192,2119,103974,0
10.207341194152832,-228,-203,2090,103953,0
10.247509241104126,-210,-201,2140,103957,0
10.287366390228271,-193,-221,2033,103990,0
10.326351881027222,-167,-216,2077,104026,0
10.366337299346924,-177,-213,2028,104048,0
10.406346797943115,-166,-204,2074,104063,0
10.446617126464844,-175,-194,2027,104087,0
10.48638129234314,-220,-199,2043,104115,0
10.52640151977539,-232,-206,2032,104117,0
10.566372156143188,-201,-203,2036,104118,0
10.606333255767822,-191,-188,2006,104102,0
10.64914846420288,-156,-189,2008,104092,0
10.686355590820312,-168,-178,1968,104078,0
10.726351022720337,-189,-220,1959,104104,0
10.765391111373901,-198,-221,2030,104126,0
10.805347204208374,-172,-204,2038,104119,0
10.845476865768433,-213,-224,2081,103988,0
10.885342359542847,-208,-209,2093,103904,0
10.925348043441772,-155,-195,2046,103922,0
10.965353965759277,-147,-196,2034,103937,0
11.005369424819946,-174,-216,2031,103944,0
11.045339584350586,-175,-209,1996,103924,0
11.085327863693237,-180,-229,2009,103913,0
11.125360488891602,-167,-203,2025,103928,0
11.165451765060425,-154,-185,2041,103946,0
11.204380750656128,-111,-212,2065,103989,0
11.2443528175354,-163,-211,2050,104019,0
11.2843337059021,-172,-216,2024,104039,0
11.324580669403076,-202,-215,2032,104059,0
11.367836713790894,-159,-215,2012,104077,0
11.406560897827148,-156,-204,2057,104090,0
11.44461464881897,-167,-204,2029,104086,0
11.484586238861084,-157,-218,2062,104058,0
11.524353265762329,-146,-212,2060,104067,0
11.564364433288574,-176,-213,2012,104070,0
11.60443663597107,-175,-184,2027,104104,0
11.643367052078247,-178,-209,2016,104120,0
11.683372974395752,-191,-199,2028,104160,0
11.723398447036743,-173,-186,2012,104182,0
11.763466835021973,-188,-202,2040,104197,0
11.803342580795288,-171,-203,2034,104230,0
11.843343496322632,-155,-197,2020,104188,0
11.883342266082764,-213,-219,2039,104050,0
11.923370122909546,-198,-190,2048,103964,0
11.963419198989868,-148,-213,2024,104072,0
12.00335693359375,-180,-191,2026,104164,0
12.043352127075195,-179,-211,2034,104185,0
12.08241868019104,-175,-209,2047,104213,0
12.122342586517334,-193,-210,2026,104235,0
12.162551879882812,-165,-183,2042,104247,0
12.202374935150146,-148,-183,2034,104264,0
12.242372989654541,-193,-204,2067,104279,0
12.282386779785156,-182,-166,2023,104299,0
12.322334289550781,-174,-183,2027,104265,0
12.362925052642822,-210,-215,1993,104232,0
12.402344942092896,-172,-192,2029,104227,0
12.442361116409302,-164,-205,2017,104192,0
12.482455015182495,-192,-212,2036,104233,0
12.521347761154175,-206,-208,2029,104244,0
12.561358213424683,-171,-178,2057,104249,0
12.601377964019775,-177,-196,2046,104273,0
12.641392230987549,-160,-214,2033,104302,0
12.681355237960815,-191,-193,2058,104293,0
12.721362352371216,-143,-197,2060,104283,0
12.761357069015503,-158,-190,2009,104298,0
12.801326513290405,-177,-174,2060,104248,0
12.841345310211182,-168,-190,1994,104232,0
12.881376504898071,-200,-193,2051,104121,0
12.921360731124878,-176,-194,2045,104039,0
12.960339784622192,-117,-205,1964,104059,0
13.000356435775757,-176,-185,2038,104083,0
13.040368556976318,-194,-191,2036,104117,0
13.080353736877441,-175,-184,2028,104142,0
13.120362997055054,-169,-182,2015,104161,0
13.160362243652344,-183,-183,2033,104165,0
13.200397729873657,-176,-196,2025,104153,0
13.240407943725586,-176,-193,2045,104134,0
13.280530214309692,-174,-197,2048,104140,0
13.32037901878357,-120,-216,1972,104135,0
13.36036729812622,-180,-186,2063,104162,0
13.399347305297852,-171,-206,2053,104185,0
13.439382076263428,-162,-170,2019,104210,0
13.479795217514038,-181,-175,2034,104232,0
13.519381523132324,-186,-187,2009,104265,0
13.559378862380981,-204,-174,2057,104277,0
13.599409818649292,-154,-178,2030,104273,0
13.639412641525269,-151,-191,2036,104273,0
13.679545879364014,-156,-204,2029,104249,0
13.719381093978882,-174,-191,2035,104245,0
13.759378671646118,-174,-205,1998,104242,0
13.79935908317566,-152,-175,2034,104261,0
13.839367151260376,-122,-163,1993,104271,0
13.878387212753296,-198,-197,2054,104192,0
13.918388605117798,-218,-192,2085,104067,0
13.958353519439697,-172,-170,2082,104071,0
13.998365879058838,-132,-167,2051,104096,0
14.038380146026611,-144,-182,2012,104150,0
14.078396081924438,-174,-203,2012,104129,0
14.118449687957764,-144,-190,1954,104110,0
14.158406019210815,-173,-193,1969,104097,0
14.198518514633179,-170,-223,2005,104099,0
14.238377332687378,-204,-193,2041,104142,0
14.2783842086792,-149,-185,2057,104163,0
14.317370414733887,-141,-184,2079,104191,0
14.35741925239563,-137,-194,2041,104212,0
14.397431373596191,-155,-206,2083,104244,0
14.43737506866455,-163,-226,2014,104249,0
14.477377653121948,-163,-210,2008,104277,0
14.51737380027771,-155,-210,1994,104295,0
14.55736255645752,-177,-200,2028,104295,0
14.597369909286499,-163,-197,2026,104289,0
14.637413501739502,-168,-209,2041,104314,0
14.677386999130249,-173,-213,2028,104364,0
14.717373847961426,-193,-219,2032,104446,0
14.756388187408447,-159,-218,2067,104507,0
14.796971321105957,-157,-220,2034,104597,0
14.836421966552734,-163,-228,2015,104684,0
14.877112865447998,-144,-228,2035,104651,0
14.916400671005249,-202,-213,2015,104569,0
14.956374168395996,-179,-212,2053,104496,0
14.997368574142456,-171,-259,2068,104476,0
15.036582946777344,-223,-208,2160,104491,1
15.076395511627197,-335,-150,2332,104580,1
15.11636471748352,-716,399,2469,104689,1
15.156388759613037,-796,1087,2709,104860,1
15.195398569107056,-321,2166,2591,105118,1
15.23536205291748,557,4133,2757,105333,1
15.275377035140991,710,5629,3011,105624,1
15.315398693084717,3374,200,-2467,105873,1
15.355390787124634,2282,-11403,-2325,105251,1
15.39543867111206,-4979,-6645,2457,105324,1
15.435439348220825,-1144,-2037,5395,105050,1
15.475416421890259,3111,-5148,-191,105185,1
15.515384197235107,735,-3197,-164,105152,1
15.555419921875,2095,-1603,1160,105040,1
15.595417737960815,109,-8,1090,105003,1
15.634544372558594,608,459,1386,104892,1
15.674378633499146,511,1232,2602,104914,1
15.71492862701416,-912,949,2774,105009,1
15.754384756088257,-1283,793,2640,104990,1
15.794396162033081,-1359,1437,3651,104921,1
15.834395408630371,-2500,1348,3742,104921,1
15.8744375705719,-2008,1646,2906,105062,1
15.914471864700317,-1433,2424,2087,105186,1
15.954508304595947,-460,4318,1957,105480,1
15.994413614273071,1943,7023,1618,105684,1
16.034425973892212,5121,1639,-1679,105458,1
16.073421955108643,3489,-17751,-2860,105111,1
16.113651275634766,-9088,-7249,4082,105719,1
16.15341353416443,93,-2651,5729,105677,1
16.19346857070923,1194,-4361,-1172,106215,1
16.233396530151367,1580,-2213,181,106112,1
16.27340006828308,1041,-803,1473,106031,1
16.313536167144775,276,-421,1749,105792,1
16.353435039520264,323,-439,1957,105678,1
16.393484354019165,-130,-249,1693,105722,1
16.43342161178589,-395,343,1708,105872,1
16.473397493362427,-269,1216,1849,105996,1
16.51244354248047,-1504,1485,2519,105987,1
16.552403211593628,-2805,1951,3088,106220,1
16.592447996139526,-3066,2558,2770,106310,1
16.632405757904053,-1201,3469,1920,106727,1
16.672436475753784,-705,7284,1918,107260,1
16.712449073791504,2719,9726,1246,107518,1
16.752439498901367,6110,-2152,-3126,106749,1
16.79249143600464,4820,-28335,-4088,106294,1
16.832437753677368,-5058,-1749,13319,106801,1
16.872442960739136,4796,-9370,-3539,107420,1
16.912566423416138,-670,-3816,-1584,107030,1
16.951519012451172,2379,-961,1913,106910,1
16.991371870040894,728,233,1010,106942,1
17.031516313552856,1027,2498,2655,107106,1
17.071476459503174,-751,2763,3437,107450,1
17.111716270446777,-1399,3142,3096,107187,1
17.15140461921692,-2981,2987,3695,107581,1
17.191415071487427,-3892,3667,949,108175,1
17.23150396347046,-1778,9004,-82,108877,1
17.271392583847046,5997,8094,-429,108025,1
17.311402797698975,5533,-8618,-465,107464,1
17.351452112197876,-6240,-21453,-5948,107040,1
17.390417098999023,-1522,-3184,11545,107097,1
17.43041205406189,5753,-8666,-3655,107378,1
17.470422506332397,78,-3004,-61,107177,1
17.51044487953186,1272,845,1702,107586,1
17.550402879714966,-348,3109,1291,108083,1
17.590439081192017,497,5184,3117,108234,1
17.630432605743408,-371,7763,4137,108943,1
17.670525312423706,-1103,9316,222,109450,1
17.710458993911743,2691,9531,810,109236,1
17.800963878631592,6724,-4923,-1974,107887,1
17.802897930145264,-1617,-26357,-2589,107834,1
17.829447746276855,-3637,-3652,10433,108571,1
17.86947536468506,4974,-6418,-1338,108676,1
17.909414768218994,657,-2398,578,108440,1
17.949525594711304,1668,-445,426,108351,1
17.989468097686768,-159,2455,1773,108494,1
18.029452800750732,-1864,3769,944,108361,1
18.069448947906494,-2423,5451,3330,107756,1
18.10942268371582,-1456,5821,3066,108474,1
18.149478435516357,-2723,7389,-1254,109726,1
18.189451217651367,2566,11064,-1907,109512,1
18.22948122024536,6526,2333,-1398,108505,1
18.268444061279297,4895,-32768,-5111,107951,1
18.308437824249268,-6444,-879,16482,109179,1
18.34844136238098,12844,-7996,-6632,108841,1
18.38841962814331,451,-1466,1934,108483,1
18.4284348487854,1101,-267,788,108622,1
18.468425035476685,-982,2272,3221,108428,1
18.508463859558105,-1592,3016,3318,108179,1
18.548531532287598,-744,4832,4349,107666,1
18.588443994522095,-769,5756,3812,108403,1
18.628477334976196,-303,10242,1132,109512,1
18.668481588363647,4720,9856,-1483,109376,1
18.707442045211792,7276,-6185,-4617,108252,1
18.747445821762085,-3014,-24734,283,101289,1
18.787496328353882,-5558,-2457,13141,109719,1
18.827542066574097,7704,-8346,-5714,110089,1
18.867420196533203,307,-848,1767,110142,1
18.907414197921753,2405,1704,2039,110829,1
18.947449207305908,-1494,4152,2756,111285,1
18.987467288970947,-496,6350,2966,111980,1
19.02748966217041,-223,10036,2153,112760,1
19.067445039749146,517,11228,-1095,112676,1
19.10746717453003,3647,6953,-702,112582,1
19.146748304367065,5994,-14527,-3652,112219,1
19.186475038528442,-6150,-14665,8560,111028,1
19.226511240005493,-1381,-10462,-1594,112392,1
19.266417264938354,4567,-3815,1898,112478,1
19.306438207626343,571,-1103,1040,112162,1
19.346904516220093,2090,604,2883,112042,1
19.38647150993347,-2137,3206,3296,111773,1
19.426474809646606,-945,5582,4322,111628,1
19.466490745544434,-2245,8433,4845,112008,1
19.506475925445557,1381,10168,1221,113156,1
19.54657483100891,4917,5146,-2756,112475,1
19.585503101348877,5660,-12415,-1464,112035,1
19.62549901008606,-7256,-14755,1562,110736,1
19.66544270515442,-3325,-6053,5723,111836,1
19.705487966537476,3089,-5097,-817,111959,1
19.745428562164307,685,-1458,1048,112007,1
19.785417318344116,677,1255,1868,112051,1
19.82552695274353,-1502,3777,4036,112209,1
19.865463733673096,-496,6355,4414,112448,1
19.905483961105347,1280,8708,2509,112963,1
19.94548797607422,2559,10104,-1335,112933,1
19.98545789718628,5311,4380,-1688,112549,1
20.02448344230652,4157,-13082,-3140,112460,1
20.064584016799927,-2754,-16155,1762,111604,1
20.104493379592896,-6427,-3081,6141,112164,1
20.144419193267822,4689,-4960,268,111835,1
20.1844425201416,394,-3027,921,111877,1
20.224440336227417,1140,-1629,1522,111569,1
20.26439595222473,563,324,2121,112120,1
20.304469347000122,-797,3231,1731,112591,1
20.344451189041138,-1716,6539,5212,113011,1
20.38443946838379,-2358,7932,4235,113752,1
20.424474716186523,-1625,7373,-756,114105,1
20.464686632156372,2262,5536,-929,113420,1
20.503469944000244,3681,-5136,-1287,112990,1
20.543461799621582,1840,-15482,-3434,112381,1
20.583572149276733,-4846,-5021,7393,112323,1
20.623499631881714,4910,-9392,-3265,112026,1
20.663779258728027,20,-3617,877,111964,1
20.703449487686157,-1613,873,2680,111872,1
20.74364686012268,84,4169,4718,111729,1
20.783451557159424,1560,5292,5148,111827,1
20.823456048965454,3159,7115,2049,111794,1
20.864200592041016,-186,6977,1669,111916,1
20.903432369232178,1908,8322,989,111914,1
20.94247531890869,4439,-942,-1374,111805,1
20.98248839378357,4644,-16667,-3610,111733,1
21.022480010986328,-7199,-7668,4188,111215,1
21.062466621398926,-64,-6708,1908,111276,1
21.102449655532837,2669,-4340,-119,111423,1
21.142475843429565,-343,-2682,1481,111093,1
21.182480335235596,209,735,3171,111206,1
21.22245717048645,-1263,1470,2326,111026,1
21.262526035308838,-1195,3070,4306,110919,1
21.302499055862427,-1706,4067,4287,110901,1
21.34243869781494,-408,6215,3730,111207,1
21.381656646728516,765,8290,1709,111833,1
21.42144513130188,4467,7167,-1346,111542,1
21.461494207382202,3787,-3137,-1043,111121,1
21.501490592956543,197,-20358,-8835,109595,1
21.54150700569153,-1622,-2238,12389,108649,1
21.58149027824402,4666,-10682,-4498,110265,1
21.6214599609375,-918,-2562,1449,110109,1
21.661495685577393,1086,-1499,-142,110215,1
21.701472282409668,-1235,2005,3688,110289,1
21.7414710521698,-1444,3612,3151,110341,1
21.781449794769287,-262,5523,5139,109423,1
21.82048988342285,3207,6834,7827,110627,1
21.8604896068573,657,8406,-617,112085,1
21.900447368621826,4678,7058,-681,111957,1
21.940492153167725,3877,-5507,-3722,111460,1
21.980472326278687,647,-21520,-6175,110539,1
22.020562171936035,-6939,-1494,10638,111051,1
22.06047296524048,9803,-7995,-2514,111060,1
22.10047221183777,-47,-3494,-355,110529,1
22.140483379364014,1045,439,3334,110556,1
22.180535316467285,-3550,3821,3148,110348,1
22.22049641609192,-403,6522,5633,110381,1
22.260477304458618,-317,7942,3278,111023,1
22.29953098297119,338,9499,-839,111816,1
22.339529991149902,3595,8411,-2444,111217,1
22.379565000534058,5286,-1954,-1892,110867,1
22.41948962211609,3605,-26258,-6383,109742,1
22.459561109542847,-11313,806,13712,110023,1
22.499489545822144,9671,-11129,-3025,110089,1
22.53951597213745,690,-3400,1088,110129,1
22.5796058177948,1378,-959,1981,110027,1
22.619580268859863,-986,2304,3773,110192,1
22.659528017044067,-3748,5545,5819,109976,1
22.699533462524414,-2328,7188,8385,110251,1
22.738520622253418,-1563,7250,1836,112416,1
22.778470993041992,1878,8671,-4704,112512,1
22.81850242614746,3758,3647,-505,111345,1
22.858509302139282,6987,-15573,-2412,111566,1
22.89852786064148,-6564,-12015,654,111019,1
22.938507795333862,-1496,-9631,4909,110670,1
22.97846746444702,2738,-6405,368,110892,1
23.018505573272705,697,-785,646,110795,1
23.058468103408813,-894,2775,2607,111038,1
23.098483085632324,-4017,8394,7304,111003,1
23.13849639892578,1811,10861,5895,111797,1
23.17747735977173,1127,9996,-370,112875,1
23.217475414276123,4425,7936,-1719,112569,1
23.257449626922607,5548,-5559,815,111385,1
23.29749822616577,3149,-26718,-204,111717,1
23.337530374526978,-19175,-448,6197,111350,1
23.378223180770874,11758,-7627,-271,110956,1
23.417474508285522,1042,-3967,553,110941,1
23.457520246505737,1084,-1590,2657,110560,1
23.498310804367065,269,832,3556,110769,1
23.537484169006348,-1346,3538,2679,110642,1
23.577504873275757,-1988,5764,7057,110568,1
23.616499185562134,-1150,6183,4751,111442,1
23.656469106674194,-314,7438,219,112181,1
23.69674801826477,3693,7522,-675,111679,1
23.736486673355103,3942,-1215,852,111321,1
23.776490449905396,4693,-21154,-4287,111163,1
23.81650447845459,-8430,-4965,9302,110503,1
23.856529712677002,4323,-10787,-2181,110237,1
23.89714789390564,-30,-4636,708,109710,1
23.936509370803833,899,-844,1414,109644,1
23.976463079452515,-2825,4334,3764,110042,1
24.016477823257446,-2337,9106,8404,110431,1
24.055454969406128,553,8701,4253,111058,1
24.095560789108276,1738,7095,-285,111793,1
24.13567876815796,3292,1814,-2594,111373,1
24.175524711608887,4252,-9028,-390,111301,1
24.215617179870605,-2167,-12700,-949,111019,1
24.255544662475586,-5866,-3525,5208,110616,1
24.295534133911133,2818,-6336,-224,110088,1
24.33548879623413,-72,-3197,1127,109959,1
24.375497579574585,-340,1376,1954,109801,1
24.415561199188232,-2405,5638,4995,109936,1
24.455477476119995,-652,7375,4902,110072,1
24.49447989463806,-97,7796,4614,110646,1
24.53450345993042,3615,6788,-2127,110641,1
24.57451319694519,4384,-2444,-818,110041,1
24.614691257476807,2349,-18739,-3490,109716,1
24.654513835906982,-10994,-2291,11657,108536,1
24.694514274597168,4248,-9669,-2255,109491,1
24.73449182510376,977,-4000,-65,109249,1
24.774503231048584,-346,-1706,311,109320,1
24.814961194992065,-89,1394,1785,109108,1
24.85446858406067,-21,4044,4372,109439,1
24.893489837646484,-532,6598,5086,109775,1
24.93347430229187,1340,8548,4764,110697,1
24.97351360321045,1309,6683,-1527,111785,1
25.01366353034973,2054,529,-2968,110880,1
25.053877353668213,2687,-8765,-1229,110476,1
25.09351348876953,-804,-10474,993,109941,1
25.13350820541382,-7437,-1429,7114,109843,1
25.173571586608887,1798,-7239,-1322,110594,1
25.214670181274414,804,-3951,608,110752,1
25.253525257110596,-1011,-1155,651,110804,1
25.29349374771118,-600,2977,3804,110552,1
25.33251190185547,-1047,5765,4795,110928,1
25.372515201568604,-1186,6945,4099,111680,1
25.412594079971313,1177,6233,13,111837,1
25.45254349708557,2731,2644,-1520,111277,1
25.492562770843506,1670,-3818,-403,111139,1
25.532540321350098,1959,-12961,-1329,110064,1
25.57254981994629,-6334,-3278,8739,109744,1
25.612730741500854,3908,-9557,-3025,111443,1
25.652547359466553,-1758,-4061,742,110912,1
25.69256067276001,37,302,1536,110752,1
25.733296155929565,-1345,3824,4288,110277,1
25.7715482711792,90,5551,4792,110486,1
25.81173610687256,-320,6070,2832,110803,1
25.85146403312683,115,5805,224,111490,1
25.891562700271606,952,6370,-2937,111611,1
25.93168878555298,2680,907,-875,110947,1
25.971583366394043,3840,-14159,-3617,110585,1
26.011497974395752,-5067,-9137,4511,109556,1
26.05156183242798,-4376,-3777,6166,111242,1
26.091554164886475,4368,-6304,-1983,111548,1
26.13173794746399,425,-2569,954,111274,1
26.17151641845703,-321,622,3366,110562,1
26.210530042648315,111,3445,5163,110631,1
26.250563144683838,-954,4585,3747,110617,1
26.290612936019897,-1496,5770,3926,110867,1
26.330642700195312,-618,5348,1033,111389,1
26.37054753303528,977,3372,311,111276,1
26.410529613494873,3065,-3506,-1813,111164,1
26.450528144836426,2539,-11762,-934,111122,1
26.49053406715393,-6646,-4581,5315,111169,1
26.53116011619568,1429,-7361,226,111929,1
26.570510864257812,-231,-4459,1241,112564,1
26.61051297187805,-80,-1519,626,112419,1
26.649560928344727,-401,2825,3051,112564,1
26.689536094665527,-1774,4400,1640,112569,1
26.729530096054077,-2101,7202,6589,111896,1
26.769532918930054,-268,6448,3963,112529,1
26.809525966644287,128,4815,-1631,112885,1
26.849539518356323,2342,990,-1556,112129,1
26.88952612876892,4702,-8523,-1134,112009,1
26.929815530776978,-1934,-11628,520,111366,1
26.969545125961304,-4167,-5851,6723,111044,1
27.009504318237305,-1378,-9816,600,111101,1
27.049550771713257,2222,-1952,1345,110665,1
27.088526725769043,1135,3320,2405,111103,1
27.128525733947754,2889,8167,3152,110834,1
27.168508052825928,8202,8085,6233,110694,1
27.20853853225708,-1891,5596,2253,112062,1
27.248624563217163,2981,6791,-798,111782,1
27.288532257080078,3884,-1259,151,111019,1
27.3285551071167,6344,-22007,-2942,111389,1
27.368536710739136,-10777,-5536,4996,110163,1
27.408543825149536,5423,-9577,4263,110406,1
27.448538303375244,-343,-5133,-1205,110657,1
27.488553047180176,2457,-1144,2138,110197,1
27.5275456905365,-2338,3875,3497,110717,1
27.567530632019043,-1600,6718,4989,110240,1
27.608269691467285,1362,10263,4918,111041,1
27.64769673347473,2226,9972,-3218,111875,1
27.68751096725464,3715,5653,-4132,111242,1
27.727574825286865,6418,-9085,-2810,110797,1
27.767573356628418,-2015,-21031,-657,108339,1
27.80755639076233,-6835,-5204,10390,107516,1
27.84774136543274,7158,-8451,246,109174,1
27.887523889541626,850,-2509,-1023,108098,1
27.927513122558594,1173,3505,4073,108114,1
27.966541051864624,-1712,6824,5318,108186,1
28.006534576416016,-848,8345,7532,108552,1
28.071613550186157,-574,7909,1354,110876,1
28.091211795806885,3045,9376,-4642,110729,1
28.12649631500244,4609,3024,-3302,109764,1
28.166784286499023,6759,-16262,-2779,109454,1
28.206530570983887,-3478,-13709,9273,106366,1
28.246609449386597,-4054,-10236,1829,110252,1
28.286548376083374,4764,-5228,2157,109472,1
28.32656192779541,1010,-702,959,109396,1
28.3665554523468,-1023,4381,4370,109161,1
28.405569553375244,650,7302,6055,109552,1
28.445602655410767,611,10703,2875,109504,1
28.485504865646362,3722,9938,1832,109100,1
28.525585412979126,5067,5069,-1683,109188,1
28.5655357837677,3698,-9708,-2035,109415,1
28.6055166721344,358,-20861,1734,102412,1
28.645549297332764,-9995,-1985,9510,108107,1
28.685554265975952,11949,-9447,-2562,107889,1
28.72554874420166,-1224,-2508,1770,107603,1
28.765592098236084,2272,1542,2817,107775,1
28.805530309677124,806,5975,2241,108010,1
28.844536304473877,-2110,11799,6395,107501,1
28.88454008102417,-1990,11015,3237,110060,1
28.924532175064087,943,7605,-5538,110332,1
28.964553833007812,5977,-4980,-1197,109698,1
29.005179405212402,2203,-21133,3135,104446,1
29.04457378387451,-11552,-4489,5854,108322,1
29.084550380706787,10907,-9292,-865,108376,1
29.124542951583862,205,-1499,2192,108391,1
29.164571523666382,631,2634,3542,108917,1
29.20449948310852,718,8420,4349,108381,1
29.24451756477356,3418,12642,7740,107218,1
29.283549308776855,392,8685,2944,108286,1
29.32354235649109,3695,5009,-221,108108,1
29.364148139953613,6831,-12157,191,108170,1
29.403700590133667,-3951,-17662,516,105363,1
29.443569660186768,-538,-10675,7775,104798,1
29.483903884887695,273,-5180,-606,106662,1
29.523514986038208,941,2410,2797,106282,1
29.56373620033264,-1255,6888,4234,106063,1
29.60358238220215,-2465,11898,7373,106544,1
29.643558740615845,3766,11264,-741,107946,1
29.683562517166138,2757,7654,-3528,107226,1
29.722549200057983,6957,-3387,-810,106679,1
29.762603282928467,5923,-30215,-1522,104211,1
29.80257511138916,-17925,-2725,10614,104122,1
29.84264636039734,15071,-11337,-1233,105797,1
29.882550716400146,-906,503,1617,104678,1
29.922605514526367,621,6836,4367,104286,1
29.962828874588013,1129,13160,7020,103403,1
30.00255823135376,2807,13080,5805,105953,1
30.04259705543518,3730,4320,-3504,106419,1
30.082601308822632,4762,-20254,1440,103777,1
30.122548818588257,-10994,-10627,9903,102197,1
30.161551237106323,8089,-13211,-132,104871,1
30.20155358314514,643,-3961,552,106509,1
30.24159336090088,1704,2486,2498,106603,1
30.281606912612915,-4116,11013,2753,105955,1
30.32153630256653,2781,14655,8628,100532,1
30.36165189743042,5440,8780,4356,107011,1
30.401808738708496,7594,-11249,-4748,106582,1
30.4415602684021,-3979,-20374,2577,88880,1
30.481552124023438,-5569,-8561,4834,103415,1
30.52155113220215,5121,-6954,1323,105181,1
30.561715841293335,2488,731,2097,105658,1
30.60054659843445,-3594,7852,4087,104441,1
30.640557050704956,-2410,14246,9585,101866,1
30.681221961975098,1560,10635,1924,107861,1
30.72054123878479,4229,4239,-6903,107414,1
30.76069402694702,6289,-16884,-1439,103494,1
30.8005633354187,-5249,-11997,13931,87644,1
30.840551376342773,5240,-15136,2544,105140,1
30.880844354629517,175,-3199,-489,107041,1
30.92051339149475,82,4381,1809,106299,1
30.96079730987549,-4194,11834,4249,105745,1
31.00096893310547,1054,14066,5111,107401,1
31.03960347175598,6638,5674,-1724,109075,1
31.079678297042847,6924,-14554,760,109207,1
31.119619131088257,-6374,-14538,4049,108099,1
31.159563541412354,-618,-13664,3200,105460,1
31.19957995414734,2308,-5188,3629,109357,1
31.239588975906372,-319,2226,2600,109509,1
31.27957320213318,-5046,8659,5985,107706,1
31.319612741470337,-5317,11268,4960,111133,1
31.359612226486206,4308,8962,-2903,111307,1
31.399662733078003,7323,-1091,125,110398,1
31.44017744064331,2524,-22871,-3318,107137,1
31.478574514389038,-8027,-3232,8524,108817,1
31.51859998703003,12076,-9679,-1808,110190,1
31.558590412139893,-828,358,2885,110391,1
31.598597288131714,-1054,5285,3299,109451,1
31.63855504989624,-896,10385,9662,99260,1
31.67855954170227,907,10232,9726,108271,1
31.71857500076294,2075,2625,-8205,111690,1
31.75857949256897,3886,-14057,-2710,106479,1
31.798616647720337,2043,-8756,8204,95795,1
31.83857297897339,-1945,-7541,1542,106740,1
31.87858510017395,4175,-6036,-1089,105128,1
31.91753911972046,585,-403,2899,103232,1
31.957566261291504,-124,3537,1529,102210,1
31.997950792312622,-1831,9914,4226,98169,1
32.037548303604126,-337,11518,5825,99850,1
32.07756328582764,3638,8209,-1735,104475,1
32.117594957351685,3621,-2753,-3790,102194,1
32.15759038925171,4231,-21206,-2140,86572,1
32.19803071022034,-5546,-3179,12349,82845,1
32.237595081329346,5469,-9737,-2478,100838,1
32.277587890625,-589,-1278,1338,94663,1
32.31755876541138,-646,5994,2567,98080,1
32.35657787322998,878,11851,610,97359,1
32.3966646194458,2933,10270,5289,97968,1
32.436572790145874,3415,4635,-1534,101859,1
32.47659754753113,4700,-11019,-1461,101010,1
32.51660418510437,-1703,-12150,4624,90483,1
32.55659604072571,-2742,-7574,3942,101304,1
32.596842765808105,5047,-5793,-820,100969,1
32.63658690452576,150,770,3741,99752,1
32.67661786079407,-1812,6442,3974,97041,1
32.716535806655884,-2738,11368,7200,98376,1
32.755653381347656,-501,8404,-1629,105158,1
32.79561424255371,4366,3567,-5030,101291,1
32.83559489250183,3866,-11499,-2734,101086,1
32.87561225891113,-400,-12948,6007,71633,1
32.915587425231934,-1987,-8654,7457,97022,1
32.95568037033081,3316,-6068,-2116,100180,1
32.99562668800354,1319,481,2013,98062,1
33.03557109832764,-1681,5360,1149,99238,1
33.07567811012268,-1702,12023,3689,87346,1
33.115564584732056,1781,11061,8170,95873,1
33.155657052993774,2405,5308,-3338,104345,1
33.194618463516235,4595,-5566,-1352,99590,1
33.23536825180054,1254,-19765,-2838,78664,1
33.27467751502991,-6562,-1935,13734,85318,1
33.314677238464355,7082,-8749,-3236,99941,1
33.35455274581909,-126,-37,1186,92946,1
33.394667863845825,1144,3095,2583,95388,1
33.43456435203552,-1143,3438,1121,94807,1
33.474653244018555,997,2820,2919,94365,1
33.514567852020264,136,1140,1487,95437,1
33.554561138153076,-306,437,1836,95116,1
33.5945827960968,-221,114,1788,94747,1
33.633612871170044,-1039,-46,2957,95487,1
33.67356538772583,-1419,1311,2269,96518,1
33.71377658843994,-1760,4484,3451,90247,1
33.75357365608215,-3175,5418,5222,91282,1
33.79354453086853,610,4027,103,98495,1
33.83355689048767,3136,97,-3256,96003,1
33.87362289428711,3439,-11286,-819,93463,1
33.9145712852478,-2867,-9265,5781,54647,1
33.95357060432434,278,-6005,9027,80432,1
33.9935986995697,2477,-6257,-4079,99726,1
34.033567667007446,-125,938,1002,95203,1
34.072550535202026,-659,6176,656,94828,1
34.112669944763184,1818,8703,-74,89871,1
34.1528480052948,-1613,8699,5945,83410,1
34.19353461265564,1421,5143,-476,90718,1
34.23260831832886,3768,-918,-1706,85210,1
34.27259135246277,3774,-16138,-1509,82975,1
34.3126757144928,-7008,-8016,9199,59751,1
34.35262632369995,5418,-11801,875,90657,1
34.39334583282471,-1129,-1086,2341,88536,1
34.432621717453,999,3224,2143,89281,1
34.472580909729004,771,7541,2109,85837,1
34.511589765548706,1325,10179,4738,89066,1
34.55158042907715,264,6444,-1706,95190,1
34.591569900512695,2040,2297,-1708,93311,1
34.631593465805054,3405,-11146,-2046,92692,1
34.67160606384277,-359,-12406,7993,73978,1
34.7116219997406,-6015,-4616,6145,79775,1
34.75161862373352,4084,-6805,1079,90859,1
34.79162383079529,953,-1148,-332,90467,1
34.831769704818726,-838,4775,3312,89078,1
34.87156867980957,-144,8781,2914,90426,1
34.912076234817505,674,8490,2350,93356,1
34.95063924789429,1671,5193,-2076,95159,1
34.99056911468506,3022,934,109,93818,1
35.030898332595825,2463,-8947,-1807,93457,1
35.07067275047302,-791,-10383,5243,77383,1
35.110647439956665,-3941,-3936,6636,89657,1
35.150660276412964,2867,-6028,361,96372,1
35.19061899185181,215,-3674,690,95352,1
35.23091506958008,287,1686,1932,94061,1
35.27063345909119,-677,4655,2321,92272,1
35.31061267852783,883,8149,3116,90257,1
35.349886655807495,11,6746,2473,94073,1
35.38965702056885,320,4809,-769,94670,1
35.42972135543823,3350,1717,-55,91491,1
35.46964693069458,3229,-6328,757,92600,1
35.50958967208862,1542,-12426,1973,75615,1
35.549651861190796,-5917,-3417,9103,79012,1
35.589645862579346,5455,-6403,-817,93607,1
35.63007164001465,-1457,-1977,1470,90739,1
35.670027017593384,385,2146,1422,90002,1
35.71004390716553,-430,5922,2470,86719,1
35.74961709976196,311,8126,3672,81751,1
35.7886643409729,348,5155,1468,89205,1
35.82864856719971,1429,2450,-1390,88710,1
35.868613958358765,2478,-3131,487,87996,1
35.90867352485657,2170,-9678,-415,81323,1
35.9486517906189,-3799,-5343,7047,68264,1
35.988638401031494,3669,-7038,2406,82850,1
36.02858638763428,-988,-3861,648,84302,1
36.068562746047974,1213,-49,2083,83089,1
36.108612298965454,-765,4855,1236,81664,1
36.148629903793335,2721,8349,3668,70995,1
36.18862986564636,2396,6234,3380,81214,1
36.22767782211304,-151,3777,-1326,84875,1
36.26759457588196,1732,1394,-350,81596,1
36.30760836601257,2749,-5889,-704,83777,1
36.3480007648468,2618,-10784,2249,64596,1
36.387638568878174,-4420,-1908,8747,69079,1
36.42761492729187,5114,-7066,-676,81066,1
36.46764016151428,-206,-2592,544,81544,1
36.50757932662964,704,970,1880,78479,1
36.54782962799072,-453,3640,2468,77606,1
36.58760476112366,221,4546,3739,76221,1
36.62663006782532,-1235,4670,3075,80021,1
36.666605710983276,-1884,4110,-109,82103,1
36.70654773712158,696,4360,144,79227,1
36.74698781967163,2511,1683,-318,77404,1
36.78661489486694,2189,-6348,-1083,77401,1
36.8266167640686,452,-9158,2493,57601,1
36.866613149642944,-855,-3568,6788,66256,1
36.90660786628723,3214,-5479,-331,78104,1
36.94744634628296,-867,-1651,2296,79706,1
36.98662090301514,-290,1722,1936,80593,1
37.02662253379822,-1983,4042,3036,79179,1
37.06587481498718,-1010,5692,3399,79515,1
37.105605363845825,-644,6787,2790,81487,1
37.145615100860596,23,5926,563,82422,1
37.18559002876282,2889,4048,-168,80770,1
37.225614070892334,3138,-2957,-184,86759,1
37.26571011543274,3528,-12998,-1278,78893,1
37.30562973022461,-3279,-5036,7746,70482,1
37.345624685287476,1660,-7106,1997,88604,1
37.38562226295471,906,-4503,-213,91608,1
37.42561960220337,750,-1740,1426,89576,1
37.465839862823486,687,1114,1787,89345,1
37.50464701652527,1076,3218,2662,88867,1
37.54464769363403,-58,4937,3195,89227,1
37.58460092544556,-569,6408,3968,88585,1
37.62461471557617,-541,5375,2411,90212,1
37.665006160736084,165,5732,722,89381,1
37.70466184616089,3969,2247,-1039,87220,1
37.74462652206421,2876,-7416,-2009,89702,1
37.784666538238525,-637,-14182,-785,61675,1
37.82466650009155,-3175,-2405,11653,65997,1
37.864829778671265,7537,-8404,-4379,94054,1
37.904608488082886,-2286,7,1909,89222,1
37.94365096092224,2717,1001,2601,84714,1
37.983612060546875,-184,2974,3567,85170,1
38.023601055145264,-151,4587,2712,85826,1
38.06451392173767,-1439,6674,3396,87900,1
38.103839635849,-378,4881,972,90803,1
38.143568992614746,599,3816,95,90832,1
38.183589458465576,2223,21,-512,91676,1
38.223621129989624,2354,-5798,-1337,89629,1
38.264087200164795,1699,-11595,1140,76833,1
38.30365824699402,-3864,-2288,7223,82018,1
38.35124611854553,4672,-5634,-403,87458,1
38.3830029964447,-380,-2423,2336,88989,1
38.42263078689575,-535,764,2032,89256,1
38.462647676467896,-2247,3737,2713,88988,1
38.50260353088379,-1492,5475,2564,88401,1
38.54263949394226,-173,5757,3271,87822,1
38.58262538909912,-181,4358,846,90445,1
38.622655391693115,800,3867,-226,89894,1
38.66263389587402,3394,861,-670,87545,1
38.702619791030884,2676,-6508,-495,88334,1
38.74263644218445,-246,-11924,1174,70085,1
38.78172016143799,-6416,-1390,9291,70089,1
38.82167148590088,6048,-7789,-824,86644,1
38.861666440963745,33,-2697,772,88585,1
38.901663064956665,1160,-539,1332,84923,1
38.94164252281189,-47,1905,2772,86615,1
38.98164892196655,254,3158,-307,86954,1
39.02164053916931,-1957,5723,3041,85075,1
39.06172704696655,-3247,5731,2254,86720,1
39.101635217666626,-2125,4270,1765,86515,1
39.141607999801636,235,5649,2515,86403,1
39.18236422538757,2521,4956,518,90498,1
39.22070837020874,2813,-3112,-2648,89777,1
39.26066255569458,1421,-10835,-1636,82303,1
39.30064821243286,-1582,-7722,6444,61093,1
39.34067416191101,-4387,-5363,5517,84904,1
39.38081336021423,6407,-6344,-587,85301,1
39.420663833618164,217,-1979,2463,87683,1
39.460610151290894,680,-766,-107,84600,1
39.50061106681824,736,2964,2557,79269,1
39.54064321517944,-156,5375,3897,78265,1
39.5809485912323,-2829,6487,4420,76595,1
39.62067675590515,-1011,5764,2340,79132,1
39.65965270996094,568,5056,-717,80519,1
39.69970989227295,2915,2702,-1790,78231,1
39.73986339569092,3302,-3886,260,76813,1
39.77967810630798,1714,-10447,881,70367,1
39.819613218307495,-5324,-4907,6516,63094,1
39.859699726104736,2102,-6318,2613,73622,1
39.89986228942871,-1737,-4756,467,76320,1
39.93997406959534,2009,-393,2033,72251,1
39.979710817337036,-382,3139,1783,72678,1
40.0196430683136,1106,6625,2871,72206,1
40.059770822525024,-1060,8620,2954,78367,1
40.098713874816895,564,6283,-1164,81850,1
40.138649702072144,3133,2384,-667,77365,1
40.178839445114136,2844,-7204,-422,82071,1
40.218663692474365,305,-12460,1132,67555,1
40.25866484642029,-6886,-1622,8856,71757,1
40.29866933822632,4695,-7999,-627,82050,1
40.3386435508728,246,-3503,1032,83311,1
40.37880063056946,947,-360,771,81225,1
40.418662786483765,-124,2238,2470,78241,1
40.458638429641724,-1419,5089,4025,75889,1
40.49855947494507,-1918,6211,4994,74716,1
40.53764319419861,-1334,5117,2687,79612,1
40.57765316963196,-953,4361,419,80702,1
40.61764359474182,2084,3864,-434,78754,1
40.65762281417847,3463,-1585,76,77612,1
40.698824882507324,2344,-9424,-199,72039,1
40.73766255378723,-1482,-7873,4564,54566,1
40.777695417404175,-6039,-2103,7209,65497,1
40.8176634311676,5859,-8425,-1231,78816,1
40.85766077041626,-97,-2686,-118,79803,1
40.89811110496521,455,2132,637,78794,1
40.936665296554565,-1708,7970,3179,70657,1
40.976643323898315,2649,10649,5661,70326,1
41.016623973846436,238,4157,856,81111,1
41.056663274765015,2473,594,-1204,80534,1
41.09679985046387,1618,-3861,23,78865,1
41.13665437698364,781,-7340,324,75430,1
41.17668890953064,-2530,-5447,5878,63379,1
41.21667766571045,-1206,-4096,4474,72675,1
41.25665330886841,2212,-5047,378,77646,1
41.29689598083496,93,-1888,753,76990,1
41.33564043045044,400,1141,1793,76253,1
41.37567448616028,-1867,3602,1867,76678,1
41.41567635536194,-2575,5344,2665,75617,1
41.45587754249573,-2106,5271,3088,74813,1
41.49572491645813,-689,3323,1934,75758,1
41.53566765785217,-216,3546,2143,73810,1
41.57565665245056,1547,3208,2454,75254,1
41.615782499313354,2361,-1698,263,77250,1
41.655691385269165,1272,-7681,-503,73073,1
41.6956570148468,-1071,-6983,3643,56319,1
41.734710931777954,-5532,-1693,7073,61602,1
41.774675369262695,475,-5763,1629,68507,1
41.814916133880615,1000,-5014,791,72680,1
41.85489273071289,638,-1525,1152,72243,1
41.89486598968506,542,1160,904,72820,1
41.93488335609436,441,5630,563,74734,1
41.9748375415802,1122,9210,279,73905,1
42.01463842391968,-641,6426,1419,74446,1
42.054720401763916,976,3431,-855,73471,1
42.09497046470642,1830,-255,1292,69777,1
42.13464093208313,2338,-6206,171,67307,1
42.173861026763916,-2376,-8584,5868,51727,1
42.214407444000244,-5279,-4611,5576,62198,1
42.25386166572571,3375,-5457,1331,68258,1
42.29367518424988,-1255,-2544,2702,66516,1
42.33385348320007,1022,188,2035,71242,1
42.373817682266235,-3,2328,767,77336,1
42.41375803947449,32,5049,1152,81321,1
42.45367980003357,-1046,9251,1821,85321,1
42.49363470077515,-1422,6811,16,93259,1
42.533642292022705,1572,4761,-3395,94799,1
42.573859453201294,2537,-854,546,92474,1
42.61273431777954,3901,-9481,-769,90161,1
42.653356313705444,3357,-9729,7196,66499,1
42.692787647247314,-6214,-1996,6680,91711,1
42.73265051841736,5118,-6593,-1966,96851,1
42.77294397354126,1338,-3115,-13,96792,1
42.81290054321289,1881,-1320,-302,96504,1
42.85284376144409,1504,409,1470,96056,1
42.89292883872986,881,1879,1858,96226,1
42.932668924331665,-331,3505,3057,95848,1
42.97281193733215,-4697,6066,4674,94834,1
43.01199674606323,-1878,7488,4534,95378,1
43.051692724227905,-309,7251,1980,99642,1
43.09171748161316,3212,3728,-2341,99796,1
43.13189721107483,4684,-5701,329,100113,1
43.171863079071045,3635,-15894,473,89273,1
43.21184802055359,-8057,-1529,8898,95980,1
43.25169920921326,6360,-9657,-4660,98382,1
43.291849851608276,-454,-3884,3180,97020,1
43.33179759979248,2008,-34,1319,95949,1
43.371766328811646,1577,3533,2782,93999,1
43.41182565689087,807,5879,4316,92993,1
43.450684547424316,-111,6449,4951,91709,1
43.490854024887085,-685,5627,3498,94952,1
43.53101444244385,-818,5711,37,96140,1
43.57069706916809,2751,5188,-2128,95478,1
43.61072039604187,4611,-4430,-2392,95623,1
43.65068292617798,175,-14029,-241,84278,1
43.69069719314575,-3295,-3804,8382,82697,1
43.731192111968994,4400,-8488,-489,94664,1
43.77071928977966,-241,-3124,1870,94798,1
43.8106803894043,784,-421,267,94099,1
43.850987672805786,-1794,2252,3034,90838,1
43.88967847824097,-1107,4355,4223,86776,1
43.929675817489624,-2375,6335,7332,84097,1
43.96968483924866,-1787,6786,5243,87571,1
44.00969052314758,-638,6969,1083,87145,1
44.04968237876892,4842,4273,-859,80027,1
44.08968758583069,5283,-7959,-1059,85142,1
44.129677057266235,-172,-15550,-585,64356,1
44.16969013214111,-4332,-2224,9533,72696,1
44.20974612236023,6250,-8685,-1875,89693,1
44.24968242645264,-831,-2125,1499,89387,1
44.29026913642883,707,1607,425,90490,1
44.328694105148315,759,5232,1959,86577,1
44.36868667602539,378,8637,4933,80257,1
44.40869903564453,-1127,8531,6422,84544,1
44.44866895675659,-771,6067,1766,90195,1
44.489293813705444,2700,2610,-275,88728,1
44.52874779701233,3164,-5861,-1276,89675,1
44.568706035614014,1675,-13283,-637,79590,1
44.609373331069946,-3291,-3912,8991,67301,1
44.64897799491882,3488,-8355,1710,85158,1
44.68868851661682,376,-4169,-1155,86519,1
44.728676557540894,1719,496,194,84877,1
44.7676842212677,-302,3112,966,83878,1
44.80770754814148,-1317,5329,3439,76347,1
44.848267793655396,7,7558,6262,72819,1
44.887683629989624,1393,8113,4556,74007,1
44.9277138710022,4829,8829,645,79528,1
44.96771430969238,4310,-987,-4996,75014,1
45.00772261619568,3820,-18969,-362,68488,1
45.047746419906616,-7457,-9090,12472,49694,1
45.08775758743286,-962,-10396,813,65343,1
45.127692461013794,5882,-5868,-971,67499,1
45.166677951812744,126,-1956,468,65967,1
45.20666217803955,2273,-37,435,64708,1
45.24673247337341,92,3383,3731,62498,1
45.286670207977295,-248,5770,4818,61311,1
45.3266966342926,-477,6053,6550,59196,1
45.366819858551025,35,5038,3751,66041,1
45.40670871734619,-844,5765,1924,71477,1
45.447083473205566,2407,3404,-2348,71514,1
45.48668432235718,2898,-3959,-95,70751,1
45.52691411972046,1071,-15591,-3761,68134,1
45.56699299812317,-4740,-3958,6680,63914,1
45.605692625045776,3826,-8248,189,72256,1
45.64607572555542,1673,-3700,1747,73446,1
45.68567204475403,-53,-899,1587,73973,1
45.72567939758301,66,4254,4013,65084,1
45.76572585105896,923,6213,6325,63918,1
45.80570602416992,2135,7761,6778,59441,1
45.845752000808716,1347,6196,3453,71740,1
45.885778188705444,2642,3480,-3317,70095,1
45.925684452056885,2029,-3023,-322,67816,1
45.96589159965515,2620,-15330,-3502,66633,1
46.0047025680542,-5904,-3686,6840,54158,1
46.04471182823181,3985,-8123,1435,75966,1
46.08471465110779,2203,-4207,-1607,81844,1
46.12557888031006,-1306,-984,501,77475,1
46.16508173942566,-893,2220,3077,73490,1
46.204697370529175,-882,4012,4081,71601,1
46.24469876289368,-783,6269,5596,68013,1
46.284719467163086,1421,7292,5055,70172,1
46.32468581199646,621,7307,1603,76346,1
46.36508536338806,2927,5585,-2688,75927,1
46.40474557876587,3465,-3422,-482,73707,1
46.44375801086426,787,-20005,-3994,65108,1
46.48371744155884,-6452,-5596,11114,65797,1
46.52414083480835,7630,-8627,-2639,76152,1
46.56381821632385,0,3,1391,74894,1
46.60387325286865,-282,6308,2518,75432,1
46.64372515678406,1291,12764,4066,61751,1
46.6837158203125,3669,9392,8416,65990,1
46.72374391555786,1793,3818,-961,76487,1
46.76388430595398,4336,-5103,-917,70602,1
46.8037371635437,2047,-17108,-1327,59938,1
46.84375262260437,-4828,-5497,10579,64704,1
46.88269591331482,4577,-7669,-1523,86616,1
46.92276954650879,-326,-486,-604,87440,1
46.962695837020874,-221,4003,1122,87542,1
47.00335216522217,-1846,7171,2338,87008,1
47.042877435684204,-2283,9312,5489,82995,1
47.08270812034607,582,6011,2363,91345,1
47.12334656715393,1533,5922,-937,93008,1
47.16309380531311,4755,242,-1938,90864,1
47.202722787857056,3588,-12208,-364,86977,1
47.24276685714722,-1415,-10027,4824,72962,1
47.281718730926514,-6245,-3350,6244,85019,1
47.32173037528992,7828,-7062,-1689,91328,1
47.36219024658203,-394,-2119,571,91030,1
47.402732849121094,671,338,1856,84395,1
47.44184422492981,44,2513,3993,82652,1
47.482248306274414,-703,3916,3172,84225,1
47.52187705039978,544,5149,3534,83340,1
47.56186819076538,158,5220,2347,89623,1
47.60175657272339,-325,4874,-114,91896,1
47.641881465911865,1388,5426,906,89204,1
47.68216133117676,3402,847,-470,88836,1
47.72074842453003,2588,-8283,-519,89203,1
47.7607307434082,912,-11251,-204,82539,1
47.80078601837158,-6099,-1920,6242,81712,1
47.84087634086609,2913,-8516,-854,89708,1
47.8808958530426,1123,-4277,1493,89949,1
47.9208664894104,346,-1357,158,88679,1
47.960866928100586,241,2867,3347,84235,1
48.00069046020508,106,5787,3424,82232,1
48.04070210456848,-921,7353,6115,72113,1
48.08099842071533,1321,6428,4201,82347,1
48.119712591171265,2542,4372,-2241,90499,1
48.159706354141235,3627,-74,-1677,86894,1
48.19986057281494,2446,-7183,-1055,88754,1
48.23968267440796,5,-12206,901,68408,1
48.27989721298218,-5183,-2160,11567,72646,1
48.319745779037476,4604,-9853,-3366,91215,1
48.359795808792114,-439,-1710,658,89875,1
48.399726152420044,1158,1302,717,89591,1
48.43970823287964,436,4081,2529,89074,1
48.47968649864197,3,5749,3114,88792,1
48.51968717575073,-86,7368,3473,89254,1
48.55887293815613,-133,6850,1302,93024,1
48.5987606048584,2497,5581,-347,90342,1
48.638702630996704,3878,73,1666,90910,1
48.67875027656555,1831,-11214,-4224,96100,1
48.71891450881958,-843,-11550,2751,67687,1
48.75887632369995,-5116,-241,9333,78622,1
48.79893112182617,4845,-8962,-3043,98771,1
48.83889961242676,1310,-2825,298,95740,1
48.87873339653015,-329,-642,-17,95208,1
48.918728828430176,-198,2519,1750,90358,1
48.95874309539795,-1927,5425,3475,88820,1
48.99783754348755,-2491,7109,5538,78431,1
49.03773522377014,756,7303,6366,87135,1
49.12122654914856,247,4608,-1845,95111,1
49.12194204330444,3875,424,-1723,91003,1
49.15775442123413,2608,-8591,-876,93190,1
49.19808077812195,713,-10940,2191,78736,1
49.23785734176636,-6682,-679,8580,83984,1
49.27785921096802,5299,-7588,-564,94100,1
49.31785321235657,87,-3861,209,93770,1
49.35788369178772,1231,-1475,555,90408,1
49.39697766304016,-192,1794,2199,89011,1
49.4367094039917,117,4554,2110,88861,1
49.476752519607544,-2064,7341,4374,83703,1
49.51677131652832,-2872,8348,5570,85488,1
49.556859254837036,243,7063,954,91981,1
49.59675717353821,3866,3756,-2936,89834,1
49.63673734664917,2964,-3861,921,88869,1
49.67677569389343,3724,-16785,-1212,81325,1
49.71676325798035,-6006,-2680,7433,80551,1
49.75673747062683,-314,-8425,-262,91764,1
49.79695129394531,2442,-4431,805,90531,1
49.83574438095093,609,-1343,1047,91418,1
49.875715017318726,23,2059,996,88784,1
49.915745973587036,-800,5791,4715,82831,1
49.95573711395264,-1015,7927,4420,85208,1
49.99572515487671,-758,7327,3279,87260,1
50.03569722175598,706,5572,234,92628,1
50.076026916503906,3561,2360,-2816,90674,1
50.11579608917236,2676,-4370,317,89219,1
50.155733823776245,3062,-14090,-784,82036,1
50.19575095176697,-5889,-3531,6655,76667,1
50.234845876693726,134,-6207,2300,90314,1
50.27473831176758,2963,-4729,-1544,93098,1
50.314855337142944,-78,-1379,422,91630,1
50.35484337806702,-85,856,1481,87736,1
50.39475679397583,-1635,3751,3482,85936,1
50.43473958969116,-2755,5562,3788,85517,1
50.474769830703735,-4091,6028,3625,87365,1
50.51532292366028,-1349,5231,1062,88079,1
50.5547149181366,2491,4520,390,86831,1
50.59485101699829,2535,1076,-701,84081,1
50.6347222328186,2397,-4274,822,84070,1
50.673746824264526,3104,-15530,-1015,79619,1
50.71494483947754,-5003,-4971,7380,64446,1
50.7537317276001,5189,-8718,1344,80544,1
50.79373908042908,1710,-1973,1331,82919,1
50.83374381065369,1963,832,1511,80915,1
50.873748540878296,-638,3659,3103,79170,1
50.91385793685913,-3671,6036,4635,79736,1
50.953847885131836,-4850,6089,2746,88306,1
50.99383878707886,-917,5190,-876,91493,1
51.0338089466095,3043,4437,-509,89344,1
51.07270526885986,2109,284,426,90489,1
51.11275672912598,1562,-7504,-1872,93168,1
51.15285015106201,-994,-10346,806,75202,1
51.19287967681885,-4058,-1195,9900,80238,1
51.232927083969116,1403,-7135,-3196,95057,1
51.27283835411072,-705,-3578,1397,92524,1
51.31285834312439,1042,-593,1128,91000,1
51.352808237075806,767,2176,2306,86835,1
51.39274477958679,2380,4485,2813,86494,1
51.43321681022644,2106,5163,1570,87213,1
51.47284460067749,-1886,4237,2728,86224,1
51.51180982589722,-305,3027,1799,87230,1
51.55180025100708,1684,126,848,88810,1
51.59185314178467,1975,-6218,-414,89061,1
51.63223934173584,-3195,-9618,5408,71617,1
51.67183041572571,1132,-4779,4877,81695,1
51.71183133125305,759,-3035,6,84876,1
51.751811504364014,508,-514,1888,82230,1
51.791746377944946,-330,2435,1620,83463,1
51.83196306228638,-1128,6028,1847,82797,1
51.87182641029358,-2466,7936,4454,77504,1
51.911744594573975,264,5366,2165,82212,1
51.950841665267944,2063,2338,-1565,84306,1
51.99087071418762,1764,-2400,-1499,81071,1
52.03195238113403,2645,-10659,-1561,74319,1
52.070833683013916,519,-6635,6667,49911,1
52.11077165603638,-1185,-4066,7042,74557,1
52.15074133872986,3186,-5863,-2273,88843,1
52.19083380699158,80,-2137,-312,84319,1
52.23111367225647,887,1280,1821,76770,1
52.27074337005615,1358,3215,1707,78850,1
52.31083655357361,-188,6292,940,75795,1
52.349812507629395,702,6600,5734,62588,1
52.389808893203735,-264,4072,4906,76776,1
52.42983436584473,-127,3572,297,84701,1
52.4698691368103,2519,1203,-2920,86343,1
52.50983953475952,3122,-7921,-1042,82800,1
52.549904108047485,-3069,-10363,4511,66105,1
52.58983063697815,1733,-5741,6143,78617,1
52.629820585250854,1173,-4231,870,82965,1
52.669843435287476,761,-471,2788,81218,1
52.70982789993286,809,2275,2065,79858,1
52.7502818107605,-1930,4087,3936,77187,1
52.78889346122742,-1666,4253,3565,76914,1
52.82884383201599,-777,4126,1970,78514,1
52.868836879730225,-1831,4556,217,77773,1
52.90885353088379,-2046,4542,-71,73106,1
52.94882416725159,2544,4068,472,63545,1
52.988844871520996,5840,-716,1109,59631,1
53.02887797355652,2761,-13371,-3096,66382,1
53.068875789642334,-4652,-9827,2792,31939,1
53.108898878097534,414,-4226,9102,35835,1
53.14931678771973,5546,-6851,-5160,61185,1
53.187840938568115,-2046,-857,232,63959,1
53.227851152420044,2176,1104,-1071,60057,1
53.26784300804138,-1068,4744,3397,59232,1
53.30784010887146,-2180,6763,1683,60790,1
53.3485689163208,-2130,7461,4395,58459,1
53.38781213760376,957,5292,2138,68386,1
53.42781352996826,281,3504,-974,76534,1
53.46781587600708,2449,-67,-233,78664,1
53.507869482040405,2448,-5466,-37,81475,1
53.547921657562256,1185,-9175,1913,53633,1
53.58687353134155,-2468,-3837,7980,50386,1
53.62688875198364,3278,-6000,-1004,97624,1
53.6668598651886,890,-2010,1750,99381,1
53.706860303878784,1367,394,1986,100214,1
53.7469527721405,-1169,3587,1704,98962,1
53.78684997558594,-3368,6876,2018,99208,1
53.826857566833496,-4042,8063,2531,99750,1
53.86686086654663,-1100,5051,630,101301,1
53.90682768821716,291,2341,979,101827,1
53.94687867164612,1750,-891,277,102046,1
53.98686194419861,1148,-4292,560,102369,1
54.02586770057678,1025,-6276,897,102457,1
54.06584286689758,-2043,-4047,3913,102597,1
54.105894804000854,482,-4439,1378,102843,1
54.14582967758179,790,-3053,1890,102831,1
54.18586254119873,-377,-2046,1500,102578,1
54.22583508491516,-3,1255,2304,102748,1
54.265997886657715,-2001,4663,2545,102817,1
54.305843353271484,-3800,8670,2122,102752,1
54.34587478637695,-3101,8521,2410,102841,1
54.38580894470215,138,4021,652,103298,1
54.42596483230591,3236,411,-410,103157,1
54.46489405632019,3493,-5296,300,103117,1
54.50488567352295,1758,-10452,2269,101636,1
54.54488134384155,-3950,-4146,7974,102609,1
54.58492350578308,3321,-5891,-905,103445,1
54.62485694885254,-93,-3145,1239,103079,1
54.665173292160034,1586,-236,608,102932,1
54.70482563972473,248,3016,1188,102710,1
54.74487519264221,-207,6607,852,103059,1
54.7848424911499,-848,8974,1153,102862,1
54.82483625411987,-539,7494,447,103525,1
54.86406230926514,747,3742,-2184,103163,1
54.90383315086365,1458,-1711,352,102738,1
54.943856954574585,3543,-8753,209,101828,1
54.98385310173035,323,-7218,4448,100803,1
55.02388882637024,-2517,-4533,4064,101377,1
55.064069509506226,3754,-5401,-12,101900,1
55.10383677482605,537,-2198,805,101563,1
55.1438844203949,312,942,2191,101111,1
55.183852434158325,-62,3671,3064,101039,1
55.22389626502991,-1855,6512,3132,101122,1
55.2641544342041,-3768,8033,3010,101647,1
55.30291795730591,-408,5810,510,102000,1
55.34288024902344,1468,3234,-1242,101885,1
55.38289999961853,2473,-502,-44,101942,1
55.422972679138184,3354,-7337,-943,102382,1
55.46284508705139,57,-9174,1820,101260,1
55.50298357009888,-3130,-4345,5155,101402,1
55.542871952056885,2800,-4374,476,102034,1
55.582889795303345,-161,-2627,1968,102231,1
55.622838735580444,12,-430,2108,102051,1
55.66288113594055,-857,2850,3577,101919,1
55.703009605407715,-678,4654,2443,101755,1
55.74185132980347,-3322,7429,4329,100768,1
55.781859397888184,-2030,5562,1859,102699,1
55.821816205978394,332,3254,193,103361,1
55.86183047294617,2791,994,991,103253,1
55.90186905860901,2061,-3024,313,103748,1
55.94186353683472,1927,-7398,-159,102789,1
55.98224854469299,-2525,-6230,5096,99562,1
56.02188491821289,-721,-7607,3568,102454,1
56.0618941783905,-86,-5833,1365,102681,1
56.101882457733154,2531,-212,1110,102621,1
56.14086723327637,1665,3900,1111,103138,1
56.18212127685547,660,8167,2023,103206,1
56.22086215019226,2681,10652,1376,103186,1
56.260873794555664,-2753,6487,-294,103558,1
56.300870418548584,1392,3094,-1652,103127,1
56.340901374816895,2237,-1878,1577,103072,1
56.38138437271118,4537,-11589,-473,102791,1
56.42089796066284,-3445,-7736,5146,92455,1
56.46085071563721,-758,-6762,2404,103824,1
56.5010039806366,3175,-4784,-603,103792,1
56.540878772735596,-100,-1874,203,103386,1
56.57986617088318,941,2229,3140,100841,1
56.61985492706299,-1932,4239,4801,101231,1
56.659863233566284,-2605,6340,4805,101541,1
56.699867248535156,-2583,5756,2766,103290,1
56.739853858947754,-458,4033,-118,104170,1
56.77985095977783,1964,3037,386,104167,1
56.81981444358826,2143,-778,468,104054,1
56.859883308410645,2636,-6485,-539,104044,1
56.89990568161011,-2391,-10937,2691,96109,1
56.939860343933105,-519,-7276,2825,103636,1
56.97983360290527,1981,-4707,95,103427,1
57.01886320114136,691,766,1455,103548,1
57.05886149406433,-1278,3576,2445,102856,1
57.09890294075012,-2407,6651,5541,100284,1
57.13885807991028,-1405,7429,6207,101097,1
57.178884506225586,-1569,5383,2002,103566,1
57.21887755393982,-95,5330,-227,104747,1
57.2588415145874,2373,734,-583,104483,1
57.29884219169617,2543,-5594,-230,103506,1
57.338945150375366,2618,-11732,530,100417,1
57.3793203830719,-7789,-3865,6026,98788,1
57.417954444885254,3834,-8435,367,102360,1
57.45792102813721,879,-3681,928,102238,1
57.49799656867981,481,-783,966,101558,1
57.53794002532959,115,3051,2299,99616,1
57.57796835899353,-2102,6410,3975,99104,1
57.61795616149902,239,7993,4003,97364,1
57.65790772438049,-815,6150,4173,98801,1
57.69841003417969,881,2809,-272,102313,1
57.73791217803955,2117,-945,-473,102047,1
57.77788519859314,2998,-7264,219,102168,1
57.8179497718811,-156,-7986,2826,91661,1
57.85702466964722,-3882,-3657,5467,97057,1
57.89705991744995,4433,-5469,-576,102985,1
57.9369261264801,-1360,-2366,721,102782,1
57.97692036628723,225,378,2365,103370,1
58.01693344116211,-1071,3696,2919,101944,1
58.057037591934204,-414,6542,4970,99811,1
58.09765362739563,-299,7012,4825,100957,1
58.13694930076599,-368,5508,1073,104348,1
58.17693281173706,2346,4500,-1743,106451,1
58.217294454574585,4003,-2044,-925,105606,1
58.25697994232178,2850,-12618,224,102500,1
58.29591941833496,-1970,-6469,8085,91377,1
58.335922718048096,-3997,-4410,3430,102289,1
58.37595844268799,4931,-5028,-866,104127,1
58.41599082946777,853,-2402,-82,103553,1
58.455885887145996,419,-201,1562,101735,1
58.49592971801758,-1564,2452,1975,101903,1
58.535934925079346,-4241,6064,2575,99662,1
58.57590699195862,-5184,7615,5925,95894,1
58.615991830825806,-1266,5338,3661,98378,1
58.65588116645813,1295,4408,5,99867,1
58.69587802886963,4885,725,-1095,98814,1
58.73499155044556,3365,-7933,-101,101350,1
58.77496957778931,-274,-12139,-691,95089,1
58.81501221656799,-7250,-1976,6789,90034,1
58.85490393638611,4534,-7974,-747,99164,1
58.89488625526428,57,-3962,835,98283,1
58.93488001823425,974,-913,545,100676,1
58.97491240501404,215,3150,2003,101870,1
59.015284061431885,-220,5903,1982,101508,1
59.05492806434631,-1069,7386,3453,98299,1
59.094913721084595,-1981,5739,3104,100153,1
59.13493752479553,-1157,5272,386,102837,1
59.1740984916687,3546,2021,-1516,101532,1
59.21424078941345,3910,-6450,2578,100235,1
59.25392770767212,753,-12397,-469,102825,1
59.293983697891235,-11034,-3160,1876,101146,1
59.33409643173218,3388,-6530,1593,101888,1
59.373950481414795,894,-3631,235,102363,1
59.41435432434082,-344,-1571,-250,101186,1
59.45388460159302,-1220,944,1217,99611,1
59.49405384063721,-981,3779,1276,99276,1
59.54828238487244,-2248,6034,2740,96111,1
59.57390069961548,-5040,7025,6448,93276,1
59.61392831802368,-1227,4685,2294,99720,1
59.652939319610596,2528,4674,637,100404,1
59.69294500350952,3287,-1407,-782,101360,1
59.73296284675598,2729,-10260,-391,98557,1
59.772902488708496,-1127,-9210,4079,90659,1
59.81299114227295,-10701,-1416,3815,93716,1
59.85291385650635,4349,-5890,293,97352,1
59.892892360687256,954,-1875,613,99926,1
59.93314003944397,150,-625,315,98891,1
59.97291135787964,971,82,1953,94564,1
60.01321768760681,-1489,286,3784,94583,2
60.051894426345825,-2702,1359,2856,95478,2
60.09190225601196,-3562,2681,4022,96374,2
60.13210606575012,-3652,3500,2851,97897,2
60.17195916175842,-2430,4074,1085,99827,2
60.21190547943115,332,4846,-712,102438,2
60.25194764137268,3008,2524,-1218,102203,2
60.291907787323,2034,-3096,103,102842,2
60.332273960113525,1005,-10104,-1217,101589,2
60.37190127372742,-6041,-3191,7026,93648,2
60.41189956665039,1359,-7529,1603,103814,2
60.45196056365967,1537,-4245,-192,104108,2
60.49089336395264,901,-223,431,103343,2
60.531227827072144,151,3331,1744,101788,2
60.57090926170349,-561,6289,3912,100351,2
60.610942363739014,-277,6817,4420,101690,2
60.650928020477295,134,2810,1779,105237,2
60.69096279144287,-479,488,322,105963,2
60.73102116584778,31,-1258,554,106129,2
60.77093982696533,-1450,-4149,873,105599,2
60.81095814704895,-3183,-4089,2055,104944,2
60.851356744766235,-1615,-2501,304,103727,2
60.890899896621704,-511,-1645,590,100695,2
60.930036544799805,-599,-738,1320,97810,2
60.96992540359497,-998,-157,981,97142,2
61.00988841056824,-1213,305,1139,100181,2
61.049999713897705,-2209,-171,-189,103130,2
61.09026646614075,-2703,-314,-1064,103796,2
61.13009810447693,-2963,-482,-1698,103872,2
61.169946908950806,-2948,-380,-1938,103748,2
61.20995616912842,-2508,-108,-1663,103659,2
61.25012826919556,-2270,40,-1727,104209,2
61.289979219436646,-1856,118,-1888,105756,2
61.32991552352905,-1522,205,-1873,106627,2
61.36892318725586,-1410,86,-1994,107174,2
61.40893578529358,-1343,-73,-2129,108153,2
61.44894075393677,-1199,-147,-2004,108124,2
61.48898720741272,-1123,-158,-1897,107771,2
61.52901744842529,-1124,-135,-1598,107678,2
61.5689640045166,-1137,30,-1432,107820,2
61.60890746116638,-1264,74,-1242,107879,2
61.649617195129395,-1153,247,-858,108128,2
61.688939332962036,-1466,391,-720,108433,2
61.72899270057678,-1221,78,-1034,108580,2
61.769087076187134,-1801,8,-1191,108501,2
61.80793046951294,-1925,-13,-1312,108366,2
61.84893727302551,-1730,-115,-1465,108003,2
61.88795852661133,-1666,-31,-1058,107772,2
61.92794895172119,-1697,-135,-1108,107654,2
61.96792507171631,-1653,-115,-961,107533,2
62.00790977478027,-1581,-95,-908,107558,2
62.048272371292114,-1550,-64,-974,107534,2
62.08792543411255,-1759,90,-811,107611,2
62.12790775299072,-1903,170,-1126,107809,2
62.16825795173645,-2138,105,-1702,107785,2
62.207953691482544,-2066,201,-1663,107676,2
62.24952578544617,-1679,550,-1229,107636,2
62.2869713306427,-1818,460,-1200,107481,2
62.32697510719299,-2011,357,-1239,107388,2
62.36699295043945,-1800,447,-989,107488,2
62.40696382522583,-1725,349,-1121,107561,2
62.44701647758484,-1897,425,-772,107672,2
62.48692035675049,-1713,412,-628,107779,2
62.5269193649292,-2045,266,-610,107560,2
62.56691384315491,-2012,285,-292,107377,2
62.606914043426514,-1623,346,-462,107319,2
62.64694380760193,-1766,413,-223,107282,2
62.68693137168884,-1731,379,-234,107354,2
62.72591805458069,-1941,309,34,107378,2
62.766088247299194,-1980,80,58,107360,2
62.80589270591736,-2086,-64,88,107403,2
62.845914363861084,-1900,-5,466,107251,2
62.885971546173096,-1941,-118,533,107044,2
62.92590808868408,-2115,-222,610,106921,2
62.96608805656433,-2056,-220,758,106862,2
63.00591802597046,-1977,-222,875,106937,2
63.045981645584106,-1995,-304,550,107059,2
63.08590126037598,-1846,-238,517,107041,2
63.12592077255249,-1683,-209,567,106950,2
63.165287733078,-1665,-222,770,106895,2
63.20492076873779,-1774,-212,708,106848,2
63.24494457244873,-1979,-289,896,106792,2
63.28494310379028,-2133,-391,786,106833,2
63.324986934661865,-1914,-283,798,106853,2
63.36493134498596,-1699,-190,856,106832,2
63.40508151054382,-1691,-188,852,106724,2
63.44490838050842,-1848,-249,936,106680,2
63.484968423843384,-1878,-293,1013,106687,2
63.52494740486145,-1840,-331,1033,106634,2
63.56530737876892,-1742,-302,1084,106642,2
63.60388946533203,-1518,-179,933,106661,2
63.64389133453369,-1468,-55,941,106665,2
63.68405842781067,-1523,-24,967,106623,2
63.723912715911865,-1673,-35,1115,106510,2
63.76397967338562,-1739,-104,1278,106447,2
63.80392932891846,-1759,-107,1358,106460,2
63.843904972076416,-1468,34,1397,106514,2
63.883944034576416,-1548,26,1477,106458,2
63.92387819290161,-1611,73,1380,106392,2
63.96389603614807,-1586,98,1327,106381,2
64.00394558906555,-1530,61,1064,106423,2
64.04299426078796,-1689,109,1317,106402,2
64.08294463157654,-1611,193,1428,106458,2
64.12302732467651,-1521,154,1414,106469,2
64.16295051574707,-1579,122,1565,106460,2
64.20293855667114,-1289,276,1347,106473,2
64.24296236038208,-1257,341,1335,106464,2
64.28304624557495,-1238,318,1417,106460,2
64.32289338111877,-1364,187,1494,106451,2
64.36300349235535,-1487,101,1499,106443,2
64.40290856361389,-1459,78,1459,106428,2
64.44291973114014,-1342,158,1464,106338,2
64.48237347602844,-1187,236,1421,106258,2
64.52189874649048,-1219,250,1346,106224,2
64.56190419197083,-1372,235,1495,106191,2
64.60191798210144,-1520,201,1611,106216,2
64.64194416999817,-1591,172,1667,106207,2
64.68190622329712,-1561,156,1537,106203,2
64.72225785255432,-1675,-48,1698,106165,2
64.76191711425781,-1438,37,1324,106239,2
64.80190348625183,-1248,196,1125,106211,2
64.84189677238464,-1199,166,1455,106179,2
64.88194465637207,-1214,47,1543,106191,2
64.92090606689453,-1369,-60,1703,106215,2
64.96090340614319,-1365,-45,1593,106246,2
65.00090599060059,-1315,-3,1393,106279,2
65.04093837738037,-1262,-46,1336,106329,2
65.08128261566162,-1223,-95,1438,106354,2
65.12098050117493,-1248,-118,1502,106368,2
65.16095161437988,-1269,-73,1560,106263,2
65.20097756385803,-1320,-45,1679,106055,2
65.24091005325317,-1370,-86,1698,105958,2
65.28174567222595,-1371,-72,1785,105919,2
65.32096409797668,-1311,-54,1810,105945,2
65.35987663269043,-1280,13,1735,105935,2
65.3999252319336,-1314,35,1640,105907,2
65.43994998931885,-1365,57,1649,105882,2
65.4801254272461,-1410,0,1547,105912,2
65.51989841461182,-1446,-30,1590,105911,2
65.55993437767029,-1438,-65,1519,105893,2
65.59993386268616,-1283,-29,1549,105932,2
65.63994455337524,-1152,-32,1512,105971,2
65.67993187904358,-1154,-1,1548,105962,2
65.71991324424744,-1290,-24,1529,105954,2
65.75998830795288,-1365,-63,1412,105995,2
65.79889154434204,-1269,0,1414,106084,2
65.8389024734497,-1232,-29,1555,106092,2
65.87896466255188,-1265,-89,1775,106097,2
65.9188973903656,-1117,-25,1737,106161,2
65.95891308784485,-1125,-16,1746,106140,2
65.99919772148132,-1323,-80,1722,106049,2
66.03890538215637,-1388,-112,1497,105988,2
66.07891464233398,-1359,-87,1516,105979,2
66.11891078948975,-1214,-58,1503,105980,2
66.15892624855042,-1093,-27,1543,105945,2
66.19901967048645,-1065,-105,1772,105961,2
66.23890280723572,-1240,-110,1758,105992,2
66.2779266834259,-1266,-38,1398,105995,2
66.31790494918823,-1622,-23,1332,105824,2
66.35792565345764,-1738,-61,1421,105732,2
66.3985767364502,-1514,-50,1451,105741,2
66.43791818618774,-1297,-25,1473,105753,2
66.47791290283203,-1329,-51,1544,105782,2
66.51794290542603,-1397,-118,1546,105779,2
66.55793571472168,-1299,-81,1447,105702,2
66.59810280799866,-1263,-26,1469,105660,2
66.63798260688782,-1454,-128,1539,105680,2
66.67691826820374,-1398,-201,1613,105726,2
66.71699571609497,-1439,-225,1550,105719,2
66.75691556930542,-1351,-158,1496,105610,2
66.79695796966553,-1257,-91,1477,105482,2
66.83696007728577,-1280,-106,1498,105416,2
66.87690806388855,-1281,-72,1623,105478,2
66.91697525978088,-1556,-140,1729,105524,2
66.95691156387329,-1389,-224,1610,105530,2
66.9970269203186,-1072,-63,1277,105573,2
67.03694295883179,-1081,-3,1244,105592,2
67.07689833641052,-1376,-68,1329,105644,2
67.11610746383667,-1521,-111,1476,105643,2
67.15591859817505,-1584,-83,1566,105639,2
67.1958954334259,-1517,7,1652,105651,2
67.23593974113464,-1395,21,1956,105657,2
67.27591490745544,-1427,-139,1979,105669,2
67.31588697433472,-1215,-174,1634,105700,2
67.35591173171997,-1078,-155,1508,105744,2
67.39591670036316,-948,-154,1558,105768,2
67.43591451644897,-1097,-124,1493,105769,2
67.4759316444397,-1104,-40,1482,105814,2
67.51507687568665,-1172,-18,1434,105682,2
67.55493307113647,-1070,103,1581,105591,2
67.59491181373596,-1157,108,1473,105609,2
67.63491916656494,-1322,153,1479,105626,2
67.67495155334473,-1506,141,1535,105687,2
67.71496748924255,-1570,164,1584,105726,2
67.75492334365845,-1679,111,1507,105691,2
67.7949059009552,-1539,145,1508,105708,2
67.83491230010986,-1456,133,1334,105734,2
67.87492108345032,-1507,44,1306,105699,2
67.91507482528687,-1503,-5,1277,105721,2
67.95397019386292,-1484,-20,1393,105767,2
67.99393367767334,-1412,-29,1458,105817,2
68.03394508361816,-1355,-18,1535,105918,2
68.07397103309631,-1334,10,1465,105922,2
68.11401224136353,-1354,8,1417,105919,2
68.15395927429199,-1427,-22,1453,105895,2
68.19394636154175,-1412,-35,1394,105846,2
68.23394727706909,-1485,-44,1444,105699,2
68.27391481399536,-1439,-35,1474,105581,2
68.31393527984619,-1459,-70,1518,105488,2
68.35292863845825,-1445,-80,1589,105489,2
68.39291572570801,-1356,-59,1554,105508,2
68.43299388885498,-1360,-43,1456,105532,2
68.4729392528534,-1363,-35,1485,105537,2
68.51290225982666,-1334,3,1452,105511,2
68.55292344093323,-1358,40,1318,105513,2
68.5929183959961,-1484,30,1325,105475,2
68.63294410705566,-1680,-45,1427,105397,2
68.67293620109558,-1592,66,1418,105332,2
68.7129237651825,-1533,52,1423,105209,2
68.75292468070984,-1446,54,1418,105252,2
68.79192233085632,-1442,122,1530,105450,2
68.831946849823,-1318,51,1352,105602,2
68.87193512916565,-1499,-54,1322,105639,2
68.911949634552,-1560,-23,1462,105595,2
68.95202136039734,-1456,-33,1292,105559,2
68.99191927909851,-1481,-7,1344,105458,2
69.03221344947815,-1456,38,1339,105420,2
69.07190990447998,-1438,20,1226,105453,2
69.11200475692749,-1530,72,1226,105451,2
69.15195775032043,-1653,-58,1282,105443,2
69.19195699691772,-1639,-92,1375,105465,2
69.2317545413971,-1495,-65,1413,105471,2
69.27094411849976,-1459,-32,1401,105470,2
69.31093335151672,-1548,-76,1335,105500,2
69.35142230987549,-1690,-33,1346,105508,2
69.39092659950256,-1676,114,1396,105523,2
69.43127775192261,-1787,108,1364,105524,2
69.47093939781189,-1623,50,1136,105493,2
69.510910987854,-1524,22,1174,105458,2
69.55097842216492,-1505,-82,1355,105442,2
69.59094572067261,-1511,-186,1435,105490,2
69.62998580932617,-1530,-212,1384,105526,2
69.67004418373108,-1491,-195,1555,105554,2
69.70998096466064,-1446,-226,1490,105602,2
69.74994039535522,-1505,-239,1407,105583,2
69.79000544548035,-1397,-189,1406,105605,2
69.82994151115417,-1265,-181,1131,105613,2
69.86994481086731,-1449,-308,1318,105708,2
69.90998411178589,-1518,-315,1616,105621,2
69.95011019706726,-1278,-271,1207,105580,2
69.98996162414551,-1309,-120,1360,105533,2
70.02994346618652,-1357,-132,1385,105516,2
70.06899666786194,-1353,-172,1465,105475,2
70.10898113250732,-1356,-161,1724,105443,2
70.14990448951721,-1506,-225,1649,105482,2
70.18898439407349,-1513,-182,1586,105530,2
70.22897005081177,-1428,-153,1408,105600,2
70.2689757347107,-1366,-122,1358,105611,2
70.30900740623474,-1364,-156,1278,105566,2
70.34896755218506,-1525,-232,1306,105458,2
70.38897252082825,-1667,-319,1435,105326,2
70.46389603614807,-1531,-296,1416,105333,2
70.46794247627258,-1308,-235,1385,105381,2
70.50801110267639,-1201,-205,1421,105455,2
70.54881238937378,-1245,-195,1471,105506,2
70.58802080154419,-1407,-208,1462,105486,2
70.62799453735352,-1459,-162,1431,105509,2
70.66802906990051,-1525,-179,1350,105483,2
70.70797729492188,-1578,-169,1394,105465,2
70.74839520454407,-1611,-224,1410,105462,2
70.78803944587708,-1554,-200,1445,105484,2
70.827951669693,-1418,-147,1431,105486,2
70.86795949935913,-1393,-158,1437,105481,2
70.90696454048157,-1515,-205,1452,105501,2
70.94702672958374,-1453,-173,1394,105495,2
70.98694515228271,-1514,-184,1437,105419,2
71.02718472480774,-1520,-136,1459,105378,2
71.06716752052307,-1505,-127,1451,105376,2
71.10698318481445,-1510,-140,1403,105370,2
71.14702486991882,-1504,-118,1392,105375,2
71.18703246116638,-1476,-134,1309,105405,2
71.22710347175598,-1529,-132,1333,105408,2
71.26754570007324,-1509,-168,1339,105385,2
71.30701327323914,-1416,-171,1364,105418,2
71.34599232673645,-1359,-173,1365,105448,2
71.38602375984192,-1397,-180,1406,105451,2
71.42598986625671,-1373,-175,1395,105500,2
71.46598386764526,-1403,-185,1458,105482,2
71.50596714019775,-1408,-184,1527,105505,2
71.54598999023438,-1389,-178,1501,105539,2
71.58594489097595,-1394,-186,1469,105482,2
71.62597584724426,-1459,-202,1422,105392,2
71.66620779037476,-1409,-166,1492,105331,2
71.70602583885193,-1402,-153,1496,105338,2
71.74502491950989,-1432,-142,1473,105367,2
71.78520607948303,-1549,-192,1523,105381,2
71.82499694824219,-1520,-224,1417,105410,2
71.8650758266449,-1285,-166,1267,105473,2
71.90496492385864,-1233,-97,1230,105483,2
71.94496583938599,-1346,-115,1394,105463,2
71.9850869178772,-1476,-153,1557,105435,2
72.02496552467346,-1570,-168,1571,105411,2
72.06578993797302,-1617,-182,1526,105393,2
72.10497117042542,-1620,-225,1424,105423,2
72.1439733505249,-1520,-206,1394,105461,2
72.18401265144348,-1428,-172,1410,105516,2
72.22398209571838,-1353,-129,1378,105520,2
72.26404237747192,-1410,-136,1410,105428,2
72.3039927482605,-1449,-157,1409,105392,2
72.34399652481079,-1448,-194,1448,105389,2
72.38403630256653,-1412,-202,1498,105372,2
72.42399787902832,-1392,-232,1504,105352,2
72.46401023864746,-1334,-214,1478,105364,2
72.50397849082947,-1283,-203,1373,105393,2
72.54398989677429,-1308,-202,1386,105405,2
72.58300471305847,-1318,-191,1350,105396,2
72.62299251556396,-1324,-142,1360,105435,2
72.66299319267273,-1361,-182,1344,105501,2
72.70301389694214,-1450,-146,1357,105483,2
72.74303960800171,-1692,-136,1716,105468,2
72.78304982185364,-1629,-182,1788,105518,2
72.82300162315369,-1331,-176,1612,105539,2
72.86300253868103,-1346,-242,1419,105563,2
72.90304279327393,-1367,-261,1204,105493,2
72.94300436973572,-1388,-253,1128,105415,2
72.98217725753784,-1333,-178,1249,105362,2
73.02199912071228,-1427,-155,1495,105312,2
73.06198692321777,-1533,-175,1653,105300,2
73.10216975212097,-1607,-178,1616,105353,2
73.14197373390198,-1590,-186,1412,105420,2
73.18243551254272,-1558,-213,1246,105454,2
73.22200798988342,-1511,-205,1230,105459,2
73.26198172569275,-1512,-246,1219,105436,2
73.30247831344604,-1492,-240,1326,105434,2
73.34198260307312,-1490,-243,1417,105436,2
73.38199758529663,-1440,-263,1488,105473,2
73.42101073265076,-1291,-212,1404,105496,2
73.46101140975952,-1420,-207,1390,105515,2
73.50103807449341,-1515,-233,1486,105534,2
73.54099559783936,-1535,-266,1511,105536,2
73.5819103717804,-1499,-290,1510,105514,2
73.6210024356842,-1373,-316,1377,105482,2
73.66101741790771,-1265,-271,1406,105320,2
73.74097871780396,-1247,-249,1383,105143,2
73.74180698394775,-1374,-238,1459,105040,2
73.7813708782196,-1474,-253,1537,105019,2
73.82000684738159,-1514,-248,1541,105062,2
73.8599784374237,-1438,-270,1408,105126,2
73.89998030662537,-1357,-261,1247,105185,2
73.9400041103363,-1487,-270,1360,105175,2
73.98001718521118,-1538,-323,1474,105180,2
74.0199990272522,-1441,-276,1515,105228,2
74.0600016117096,-1366,-274,1484,105292,2
74.10002613067627,-1332,-305,1423,105280,2
74.13998675346375,-1388,-311,1449,105289,2
74.18002009391785,-1446,-329,1432,105310,2
74.21998190879822,-1350,-301,1428,105363,2
74.25900435447693,-1367,-300,1470,105404,2
74.29918813705444,-1382,-294,1480,105445,2
74.33899545669556,-1454,-304,1438,105499,2
74.37903141975403,-1490,-313,1413,105546,2
74.41901469230652,-1437,-289,1413,105551,2
74.45900249481201,-1500,-344,1390,105378,2
74.49942302703857,-1483,-300,1398,105170,2
74.53901100158691,-1418,-276,1422,105116,2
74.57901358604431,-1383,-260,1461,105132,2
74.61900019645691,-1407,-277,1492,105171,2
74.65902519226074,-1440,-300,1437,105219,2
74.69866490364075,-1459,-304,1404,105261,2
74.7379961013794,-1454,-335,1319,105290,2
74.77802968025208,-1406,-301,1379,105333,2
74.81799745559692,-1371,-298,1389,105325,2
74.85799169540405,-1354,-290,1462,105341,2
74.89900946617126,-1418,-302,1476,105379,2
74.93802213668823,-1405,-289,1423,105409,2
74.97800421714783,-1396,-276,1426,105454,2
75.0180184841156,-1415,-260,1467,105454,2
75.05803418159485,-1448,-270,1499,105506,2
75.09708070755005,-1407,-280,1479,105544,2
75.1370313167572,-1416,-295,1517,105574,2
75.17704129219055,-1434,-293,1528,105632,2
75.21886086463928,-1340,-255,1415,105652,2
75.25701665878296,-1408,-283,1473,105544,2
75.29706358909607,-1429,-293,1440,105417,2
75.33704447746277,-1414,-291,1379,105334,2
75.37702250480652,-1367,-275,1412,105281,2
75.41707134246826,-1421,-305,1451,105292,2
75.45711636543274,-1355,-266,1421,105350,2
75.49704647064209,-1334,-239,1388,105409,2
75.53602313995361,-1382,-219,1437,105432,2
75.57601833343506,-1419,-241,1501,105436,2
75.61643958091736,-1447,-266,1561,105466,2
75.6560525894165,-1463,-283,1535,105510,2
75.69605422019958,-1405,-277,1505,105554,2
75.73600912094116,-1317,-222,1434,105608,2
75.77603268623352,-1300,-187,1391,105593,2
75.81670808792114,-1462,-229,1531,105573,2
75.85606002807617,-1428,-317,1587,105564,2
75.89602851867676,-1354,-290,1528,105605,2
75.93501925468445,-1237,-273,1411,105631,2
75.97501611709595,-1306,-267,1466,105610,2
76.01522660255432,-1234,-231,1480,105469,2
76.05501341819763,-1241,-209,1471,105338,2
76.09504079818726,-1355,-234,1503,105293,2
76.13504528999329,-1345,-191,1387,105330,2
76.17505741119385,-1448,-176,1433,105332,2
76.2151312828064,-1478,-185,1500,105325,2
76.25505447387695,-1468,-249,1581,105323,2
76.29502606391907,-1397,-267,1617,105317,2
76.33509135246277,-1331,-254,1512,105362,2
76.37403559684753,-1362,-279,1551,105406,2
76.41410160064697,-1339,-302,1582,105460,2
76.45404624938965,-1206,-271,1543,105524,2
76.49401617050171,-1201,-276,1586,105565,2
76.5340473651886,-1210,-243,1536,105624,2
76.57403111457825,-1276,-256,1505,105644,2
76.61456370353699,-1319,-251,1491,105636,2
76.6540367603302,-1310,-259,1501,105627,2
76.69407796859741,-1274,-265,1550,105576,2
76.73404216766357,-1269,-241,1571,105466,2
76.77303981781006,-1303,-243,1541,105326,2
76.81303596496582,-1344,-286,1609,105270,2
76.85300874710083,-1270,-266,1513,105319,2
76.89307141304016,-1277,-216,1497,105364,2
76.93321657180786,-1359,-238,1524,105409,2
76.97301077842712,-1325,-245,1520,105441,2
77.0130455493927,-1303,-255,1572,105424,2
77.05302453041077,-1272,-269,1612,105427,2
77.09308886528015,-1225,-259,1621,105430,2
77.13320231437683,-1287,-267,1557,105473,2
77.17202639579773,-1292,-251,1502,105542,2
77.21202301979065,-1302,-264,1547,105575,2
77.25203919410706,-1314,-256,1535,105613,2
77.29210495948792,-1341,-267,1613,105674,2
77.33248543739319,-1285,-264,1580,105727,2
77.37204170227051,-1273,-238,1497,105767,2
77.41202235221863,-1317,-226,1482,105788,2
77.45206046104431,-1353,-248,1576,105649,2
77.49210476875305,-1341,-273,1582,105466,2
77.53228116035461,-1331,-293,1657,105335,2
77.5720272064209,-1215,-253,1530,105346,2
77.611079454422,-1274,-231,1471,105384,2
77.65103030204773,-1421,-309,1571,105415,2
77.6910970211029,-1327,-284,1584,105477,2
77.73132061958313,-1201,-238,1590,105510,2
77.77105522155762,-1156,-240,1631,105520,2
77.81108546257019,-1199,-252,1625,105521,2
77.85106229782104,-1245,-245,1504,105538,2
77.89115786552429,-1330,-228,1510,105537,2
77.93110990524292,-1335,-242,1520,105562,2
77.97107291221619,-1266,-196,1546,105616,2
78.01004123687744,-1273,-236,1596,105658,2
78.0500590801239,-1275,-223,1594,105704,2
78.09008502960205,-1260,-217,1527,105756,2
78.13008189201355,-1236,-197,1562,105776,2
78.1700451374054,-1318,-236,1588,105697,2
78.21006155014038,-1287,-213,1480,105548,2
78.2501368522644,-1341,-180,1416,105444,2
78.29008364677429,-1368,-196,1471,105387,2
78.33006525039673,-1422,-258,1615,105365,2
78.3700795173645,-1369,-298,1666,105380,2
78.41002988815308,-1224,-260,1588,105453,2
78.45178484916687,-1118,-206,1519,105503,2
78.48906540870667,-1226,-216,1506,105537,2
78.52905249595642,-1290,-225,1543,105596,2
78.569100856781,-1358,-241,1561,105665,2
78.60912871360779,-1341,-233,1667,105726,2
78.64911127090454,-1372,-257,1571,105790,2
78.68907523155212,-1337,-193,1436,105777,2
78.72906017303467,-1413,-198,1381,105757,2
78.76904559135437,-1432,-216,1429,105671,2
78.80909061431885,-1371,-219,1491,105663,2
78.8482620716095,-1329,-234,1398,105641,2
78.88815641403198,-1436,-298,1488,105516,2
78.92810940742493,-1383,-275,1542,105400,2
78.96816849708557,-1242,-211,1472,105373,2
79.00827050209045,-1403,-257,1633,105379,2
79.04866933822632,-1287,-263,1635,105429,2
79.08810329437256,-1174,-218,1577,105447,2
79.12804555892944,-1313,-255,1495,105431,2
79.16805863380432,-1372,-259,1457,105413,2
79.20806169509888,-1407,-260,1509,105413,2
79.24825525283813,-1368,-261,1535,105457,2
79.2870762348175,-1320,-227,1552,105500,2
79.32704377174377,-1351,-228,1510,105524,2
79.36706399917603,-1380,-251,1488,105558,2
79.40706825256348,-1346,-235,1498,105602,2
79.44719982147217,-1356,-247,1461,105636,2
79.48706150054932,-1322,-223,1499,105638,2
79.52703619003296,-1318,-226,1462,105642,2
79.56813955307007,-1367,-249,1479,105546,2
79.60704612731934,-1375,-239,1545,105386,2
79.64726710319519,-1372,-221,1491,105311,2
79.68707633018494,-1404,-226,1548,105326,2
79.72603845596313,-1374,-245,1503,105353,2
79.76675724983215,-1354,-230,1523,105391,2
79.80606365203857,-1359,-233,1481,105463,2
79.8460910320282,-1363,-256,1492,105498,2
79.88607430458069,-1317,-226,1536,105521,2
79.92608046531677,-1314,-244,1500,105547,2
79.96625757217407,-1340,-249,1535,105545,2
80.00606203079224,-1354,-251,1484,105585,2
80.04610586166382,-1313,-244,1487,105596,2
80.08606743812561,-1290,-224,1475,105623,2
80.12509751319885,-1325,-231,1500,105647,2
80.16545271873474,-1337,-229,1520,105682,2
80.20509099960327,-1373,-238,1524,105738,2
80.24506616592407,-1365,-245,1511,105777,2
80.28523349761963,-1299,-201,1508,105801,2
80.32504677772522,-1348,-219,1526,105762,2
80.36545324325562,-1392,-240,1550,105645,2
80.40507578849792,-1356,-213,1495,105558,2
80.44506478309631,-1362,-223,1501,105497,2
80.48523497581482,-1377,-239,1521,105503,2
80.52504634857178,-1326,-220,1476,105567,2
80.56414103507996,-1324,-202,1477,105628,2
80.6045880317688,-1366,-254,1501,105638,2
80.64405608177185,-1331,-208,1516,105666,2
80.68413639068604,-1332,-215,1503,105709,2
80.72405195236206,-1357,-227,1530,105735,2
80.76408505439758,-1354,-225,1485,105753,2
80.80405879020691,-1337,-242,1503,105746,2
80.84407091140747,-1330,-233,1496,105724,2
80.88409924507141,-1379,-233,1495,105709,2
80.92409777641296,-1367,-239,1504,105715,2
80.9631450176239,-1353,-239,1529,105727,2
81.00307559967041,-1337,-233,1510,105747,2
81.0431125164032,-1280,-220,1465,105743,2
81.08313846588135,-1385,-244,1509,105631,2
81.12310528755188,-1387,-241,1505,105526,2
81.16307187080383,-1399,-246,1532,105497,2
81.20308923721313,-1373,-250,1562,105508,2
81.24311423301697,-1328,-252,1505,105493,2
81.28321027755737,-1303,-224,1488,105509,2
81.32308959960938,-1349,-238,1493,105498,2
81.37296628952026,-1303,-209,1486,105539,2
81.40310668945312,-1311,-218,1507,105568,2
81.4421055316925,-1359,-211,1503,105577,2
81.48229837417603,-1396,-228,1507,105602,2
81.52206373214722,-1373,-230,1495,105633,2
81.562087059021,-1361,-241,1515,105658,2
81.6020827293396,-1345,-223,1507,105642,2
81.64213132858276,-1347,-233,1478,105635,2
81.68251514434814,-1366,-230,1489,105615,2
81.72206592559814,-1373,-236,1519,105561,2
81.76207900047302,-1299,-201,1475,105563,2
81.80110263824463,-1388,-239,1529,105471,2
81.84108972549438,-1392,-244,1529,105370,2
81.88132953643799,-1389,-255,1486,105293,2
81.9210934638977,-1412,-261,1493,105288,2
81.96110987663269,-1338,-244,1459,105299,2
82.00108194351196,-1331,-216,1492,105236,2
82.04107236862183,-1348,-243,1513,105171,2
82.08119201660156,-1418,-266,1425,105095,2
82.1211805343628,-1380,-219,1436,105035,2
82.16111755371094,-1448,-240,1414,105031,2
82.20110392570496,-1474,-240,1473,105074,2
82.24008107185364,-1443,-254,1476,105098,2
82.28007745742798,-1366,-224,1489,105134,2
82.32009053230286,-1384,-238,1474,105171,2
82.36012482643127,-1349,-224,1507,105221,2
82.40016961097717,-1377,-245,1483,105276,2
82.44009733200073,-1397,-251,1459,105288,2
82.48006820678711,-1389,-268,1471,105272,2
82.52007699012756,-1445,-301,1428,105236,2
82.56010341644287,-1523,-279,1480,105159,2
82.60006928443909,-1328,-145,1266,105050,2
82.639075756073,-1334,-122,1314,104994,2
82.67909955978394,-1556,-279,1500,104952,2
82.71920537948608,-1521,-307,1600,104920,2
82.75982284545898,-1318,-246,1459,104915,2
82.79908800125122,-1356,-251,1489,104909,2
82.83910250663757,-1366,-298,1540,104918,2
82.87910485267639,-1360,-307,1480,104894,2
82.91926789283752,-1390,-328,1525,104873,2
82.95913600921631,-1368,-290,1605,104891,2
82.99944138526917,-1224,-198,1528,104932,2
83.03907608985901,-1237,-192,1558,104991,2
83.07817029953003,-1296,-212,1694,105072,2
83.11809873580933,-1324,-238,1634,105144,2
83.15807938575745,-1223,-242,1462,105184,2
83.19845008850098,-1205,-198,1453,105212,2
83.23810744285583,-1276,-224,1508,105308,2
83.27822732925415,-1297,-288,1252,105535,2
83.31810474395752,-1371,-246,1496,105529,2
83.35809755325317,-1387,-214,1571,105276,2
83.39837527275085,-1262,-191,1642,104984,2
83.43812608718872,-1269,-224,1700,104897,2
83.4781322479248,-1249,-262,1585,105184,2
83.51717019081116,-1172,-362,1344,105544,2
83.55711579322815,-1405,-284,1504,105556,2
83.59721326828003,-1262,-268,1688,105100,2
83.63716650009155,-1185,-210,1581,105110,2
83.67708349227905,-1254,-191,1540,105996,2
83.71711373329163,-1302,-219,1507,105840,2
83.75713753700256,-1318,-206,1760,104989,2
83.79711890220642,-1273,-179,1646,104826,2
83.8371365070343,-1183,-201,1583,104808,2
83.87713050842285,-1169,-214,1594,104807,2
83.916330575943,-1256,-257,1525,104798,2
83.95611810684204,-1271,-240,1546,104796,2
83.99609017372131,-1285,-257,1583,104805,2
84.03615999221802,-1326,-250,1521,104849,2
84.07608604431152,-1270,-236,1604,104887,2
84.11654734611511,-1249,-307,1384,104904,2
84.15616607666016,-1241,-215,1567,104785,2
84.196218252182,-1257,-221,1464,104663,2
84.23616409301758,-1368,-276,1416,104626,2
84.27612090110779,-1396,-256,1646,104604,2
84.31613087654114,-1406,-280,1575,104656,2
84.35516023635864,-1372,-297,1636,104692,2
84.39522004127502,-1363,-322,1700,104715,2
84.43515300750732,-1339,-358,1620,104750,2
84.47511887550354,-1232,-309,1504,104752,2
84.5156352519989,-1230,-290,1431,104777,2
84.55516266822815,-1321,-327,1444,104808,2
84.59511256217957,-1305,-323,1443,104821,2
84.63515019416809,-1326,-319,1514,104832,2
84.67512512207031,-1401,-341,1499,104835,2
84.71540856361389,-1311,-298,1648,104889,2
84.75415468215942,-1320,-349,1527,104921,2
84.79414939880371,-1279,-316,1681,104932,2
84.83415794372559,-1276,-347,1642,104939,2
84.87415146827698,-1264,-372,1620,104967,2
84.9143238067627,-1201,-365,1573,104994,2
84.95416164398193,-1216,-364,1530,105023,2
84.99423909187317,-1207,-402,1499,104907,2
85.03460574150085,-1108,-329,1497,104772,2
85.0740978717804,-1264,-319,1505,104713,2
85.11435294151306,-1329,-305,1551,104717,2
85.15415477752686,-1307,-294,1568,104760,2
85.19313549995422,-1297,-295,1537,104836,2
85.23312163352966,-1254,-298,1422,104857,2
85.27317070960999,-1277,-236,1502,104830,2
85.3131308555603,-1377,-305,1515,104799,2
85.35312056541443,-1469,-286,1632,104858,2
85.39311742782593,-1438,-270,1836,104849,2
85.43313789367676,-1396,-340,1597,104833,2
85.47314476966858,-1322,-292,1580,104802,2
85.51314687728882,-1320,-305,1517,104803,2
85.55313897132874,-1275,-324,1439,104794,2
85.59313106536865,-1252,-328,1489,104844,2
85.63257551193237,-1202,-337,1447,104868,2
85.67210936546326,-1170,-328,1468,104879,2
85.71212530136108,-1208,-339,1523,104860,2
85.75215196609497,-1307,-347,1549,104736,2
85.79214334487915,-1326,-336,1524,104652,2
85.83224987983704,-1366,-370,1595,104618,2
85.87210631370544,-1254,-248,1393,104615,2
85.91211724281311,-1444,-144,1422,104587,2
85.95212507247925,-1475,-164,1468,104574,2
85.99216294288635,-1546,-209,1582,104598,2
86.03114652633667,-1390,-273,1648,104599,2
86.07113003730774,-1342,-329,1638,104611,2
86.11116003990173,-1278,-388,1549,104648,2
86.15113115310669,-1192,-342,1465,104676,2
86.19113063812256,-1195,-334,1407,104712,2
86.2311806678772,-1273,-315,1387,104731,2
86.27115035057068,-1270,-259,1416,104723,2
86.31112384796143,-1417,-269,1454,104703,2
86.35114693641663,-1451,-272,1468,104691,2
86.39113020896912,-1504,-283,1415,104704,2
86.43175315856934,-1443,-268,1379,104730,2
86.47022581100464,-1460,-256,1421,104631,2
86.51013541221619,-1473,-280,1411,104529,2
86.5501880645752,-1459,-275,1459,104477,2
86.59013438224792,-1441,-271,1469,104475,2
86.63014888763428,-1455,-308,1517,104455,2
86.67012166976929,-1420,-310,1518,104466,2
86.71014094352722,-1365,-296,1457,104459,2
86.75035905838013,-1413,-351,1408,104446,2
86.79015707969666,-1405,-303,1460,104440,2
86.83015775680542,-1383,-311,1379,104485,2
86.86918330192566,-1395,-289,1398,104537,2
86.90920448303223,-1449,-309,1416,104583,2
86.94961524009705,-1463,-307,1406,104619,2
86.98914980888367,-1424,-281,1440,104651,2
87.02911829948425,-1434,-299,1443,104690,2
87.06911897659302,-1435,-368,1480,104681,2
87.1091685295105,-1349,-273,1460,104661,2
87.14916038513184,-1404,-282,1425,104638,2
87.18914270401001,-1412,-297,1463,104614,2
87.2292263507843,-1438,-304,1490,104623,2
87.2681474685669,-1370,-281,1455,104636,2
87.30815315246582,-1411,-247,1438,104510,2
87.34834575653076,-1430,-315,1390,104373,2
87.38813471794128,-1444,-293,1440,104305,2
87.42813324928284,-1414,-280,1444,104294,2
87.46813678741455,-1401,-291,1389,104298,2
87.50813746452332,-1428,-292,1438,104306,2
87.54888939857483,-1387,-288,1417,104305,2
87.58813190460205,-1380,-301,1416,104292,2
87.62819623947144,-1393,-288,1458,104301,2
87.66813850402832,-1416,-288,1468,104352,2
87.70713758468628,-1429,-308,1486,104401,2
87.74712562561035,-1378,-302,1493,104445,2
87.78713393211365,-1368,-295,1462,104500,2
87.82714009284973,-1370,-296,1459,104536,2
87.86712574958801,-1357,-293,1398,104578,2
87.90717506408691,-1373,-284,1444,104593,2
87.94720387458801,-1391,-305,1414,104583,2
87.98714137077332,-1413,-276,1470,104598,2
88.02714657783508,-1378,-297,1443,104622,2
88.06715536117554,-1288,-285,1397,104666,2
88.10613203048706,-1326,-269,1478,104662,2
88.14617657661438,-1435,-290,1513,104531,2
88.18615174293518,-1488,-301,1490,104419,2
88.2261438369751,-1486,-292,1488,104404,2
88.26619935035706,-1451,-303,1431,104423,2
88.30615544319153,-1419,-310,1452,104417,2
88.34613966941833,-1370,-299,1424,104414,2
88.38618445396423,-1354,-283,1435,104406,2
88.4261417388916,-1391,-311,1423,104390,2
88.46619582176208,-1399,-280,1451,104410,2
88.50614285469055,-1423,-295,1444,104442,2
88.54513216018677,-1407,-316,1470,104476,2
88.58516597747803,-1394,-310,1515,104509,2
88.62513947486877,-1403,-319,1456,104548,2
88.66526961326599,-1378,-312,1452,104584,2
88.7054705619812,-1416,-306,1439,104600,2
88.74514293670654,-1420,-317,1421,104600,2
88.78515791893005,-1388,-310,1410,104596,2
88.8251473903656,-1400,-307,1473,104582,2
88.86535239219666,-1400,-306,1428,104595,2
88.90518260002136,-1393,-319,1441,104610,2
88.94420337677002,-1386,-311,1434,104654,2
88.98412799835205,-1385,-310,1426,104609,2
89.0241813659668,-1423,-309,1454,104485,2
89.06425547599792,-1450,-316,1444,104411,2
89.10418796539307,-1443,-327,1481,104401,2
89.14417767524719,-1411,-312,1491,104384,2
89.18439030647278,-1348,-309,1434,104390,2
89.22417116165161,-1329,-296,1453,104376,2
89.26435899734497,-1407,-316,1448,104389,2
89.30420112609863,-1412,-326,1436,104389,2
89.34314966201782,-1375,-317,1483,104441,2
89.3833737373352,-1409,-308,1495,104466,2
89.42317342758179,-1413,-317,1474,104500,2
89.4631495475769,-1391,-318,1448,104569,2
89.50314426422119,-1357,-316,1419,104605,2
89.54319429397583,-1361,-323,1434,104632,2
89.5832405090332,-1357,-313,1446,104631,2
89.62316465377808,-1358,-304,1467,104602,2
89.66316056251526,-1418,-317,1474,104621,2
89.70316481590271,-1417,-311,1452,104643,2
89.74314045906067,-1390,-293,1444,104712,2
89.78282284736633,-1392,-307,1450,104771,2
89.82217240333557,-1377,-321,1463,104823,2
89.86224222183228,-1337,-297,1394,104863,2
89.90213012695312,-1373,-314,1448,104820,2
89.94215846061707,-1424,-329,1482,104683,2
89.98266243934631,-1373,-317,1488,104592,2
90.02215623855591,-1387,-320,1486,104553,2
90.06215381622314,-1416,-348,1419,104537,2
90.10230255126953,-1394,-336,1448,104543,2
90.14224362373352,-1375,-321,1425,104594,2
90.18120551109314,-1413,-350,1413,104638,2
90.22119545936584,-1402,-326,1429,104661,2
90.26121973991394,-1369,-313,1434,104669,2
90.30122375488281,-1427,-350,1457,104705,2
90.34119534492493,-1397,-371,1432,104751,2
90.38125467300415,-1402,-332,1474,104768,2
90.42124700546265,-1385,-334,1435,104783,2
90.46120119094849,-1376,-345,1471,104759,2
90.50126147270203,-1391,-356,1485,104752,2
90.54119825363159,-1404,-342,1453,104764,2
90.58131456375122,-1393,-351,1436,104771,2
90.62024235725403,-1406,-339,1436,104814,2
90.66022896766663,-1427,-351,1420,104825,2
90.70012879371643,-1359,-328,1412,104845,2
90.74025583267212,-1450,-368,1438,104752,2
90.780198097229,-1429,-358,1455,104638,2
90.82021069526672,-1385,-331,1454,104572,2
90.86021566390991,-1431,-357,1428,104535,2
90.90020942687988,-1404,-337,1434,104508,2
90.94016599655151,-1387,-334,1429,104518,2
90.98021411895752,-1398,-335,1408,104551,2
91.01919627189636,-1451,-366,1416,104581,2
91.05924844741821,-1403,-333,1381,104622,2
91.09916234016418,-1409,-317,1436,104633,2
91.13926124572754,-1452,-342,1469,104667,2
91.17922234535217,-1434,-331,1466,104732,2
91.2192051410675,-1370,-319,1446,104758,2
91.25931859016418,-1398,-330,1449,104774,2
91.29929542541504,-1434,-347,1433,104754,2
91.3392014503479,-1406,-321,1424,104763,2
91.37919449806213,-1402,-316,1440,104754,2
91.419184923172,-1387,-319,1442,104788,2
91.45819020271301,-1377,-316,1418,104827,2
91.49850106239319,-1372,-334,1387,104847,2
91.53821325302124,-1357,-332,1407,104860,2
91.57821822166443,-1468,-388,1453,104889,2
91.63858008384705,-1375,-393,1497,104896,2
91.65995788574219,-1242,-342,1439,104751,2
91.69820928573608,-1340,-318,1456,104585,2
91.73819375038147,-1372,-285,1413,104534,2
91.77819609642029,-1395,-294,1391,104503,2
91.81816911697388,-1560,-376,1557,104483,2
91.85720705986023,-1520,-381,1562,104492,2
91.89722609519958,-1395,-354,1452,104551,2
91.93722438812256,-1426,-374,1427,104561,2
91.977219581604,-1473,-407,1432,104576,2
92.01721405982971,-1362,-338,1417,104594,2
92.05722093582153,-1286,-327,1402,104613,2
92.09719514846802,-1298,-344,1424,104637,2
92.1371717453003,-1308,-388,1372,104617,2
92.17721199989319,-1369,-375,1372,104635,2
92.21718955039978,-1382,-380,1399,104656,2
92.25718784332275,-1348,-358,1450,104695,2
92.29616522789001,-1386,-379,1406,104721,2
92.33618068695068,-1438,-361,1579,104741,2
92.37619924545288,-1413,-369,1519,104787,2
92.41619229316711,-1360,-351,1428,104813,2
92.45617699623108,-1433,-368,1390,104848,2
92.49626612663269,-1404,-361,1396,104858,2
92.53619337081909,-1423,-391,1455,104731,2
92.57619261741638,-1382,-385,1513,104459,2
92.61619639396667,-1405,-414,1506,104280,2
92.65620684623718,-1340,-406,1439,104253,2
92.69624876976013,-1374,-379,1410,104269,2
92.7351987361908,-1449,-383,1385,104286,2
92.77523112297058,-1488,-376,1421,104292,2
92.81540870666504,-1561,-454,1455,104318,2
92.85518598556519,-1363,-397,1410,104332,2
92.89594650268555,-1366,-426,1402,104342,2
92.93518853187561,-1422,-467,1532,104330,2
92.97535157203674,-1267,-422,1424,104347,2
93.01557111740112,-1272,-436,1376,104363,2
93.0552625656128,-1316,-454,1459,104369,2
93.09528875350952,-1215,-436,1419,104414,2
93.13422083854675,-1222,-377,1433,104471,2
93.17424654960632,-1258,-308,1378,104507,2
93.21427536010742,-1498,-384,1445,104547,2
93.25423693656921,-1563,-395,1530,104586,2
93.29425168037415,-1524,-354,1427,104634,2
93.33426809310913,-1556,-369,1463,104658,2
93.37422347068787,-1491,-387,1452,104682,2
93.41425132751465,-1367,-356,1428,104549,2
93.4542007446289,-1369,-381,1423,104297,2
93.494220495224,-1354,-388,1438,104158,2
93.53419041633606,-1320,-398,1446,104150,2
93.57321643829346,-1283,-402,1416,104168,2
93.6132140159607,-1293,-426,1440,104137,2
93.65320324897766,-1230,-366,1606,104087,2
93.69330525398254,-1338,-392,1500,104085,2
93.73362565040588,-1310,-327,1357,104145,2
93.77322149276733,-1349,-307,1299,104228,2
93.81327724456787,-1581,-344,1302,104235,2
93.85320234298706,-1525,-309,1482,104241,2
93.89363765716553,-1617,-350,1410,104313,2
93.93333625793457,-1579,-363,1385,104338,2
93.97325277328491,-1570,-346,1431,104410,2
94.01226925849915,-1496,-376,1367,104491,2
94.05221033096313,-1410,-352,1324,104576,2
94.09222865104675,-1396,-341,1361,104635,2
94.13271880149841,-1410,-370,1409,104676,2
94.17224287986755,-1366,-382,1464,104736,2
94.21222162246704,-1305,-374,1512,104753,2
94.25225710868835,-1242,-329,1415,104755,2
94.29223465919495,-1286,-295,1430,104600,2
94.33256268501282,-1442,-357,1415,104431,2
94.37226581573486,-1461,-348,1454,104376,2
94.4112446308136,-1491,-383,1454,104378,2
94.45124530792236,-1415,-345,1433,104427,2
94.49125933647156,-1349,-303,1406,104481,2
94.53137135505676,-1418,-308,1400,104515,2
94.57122993469238,-1493,-338,1388,104525,2
94.61122488975525,-1521,-320,1423,104536,2
94.65122270584106,-1479,-316,1358,104554,2
94.69127154350281,-1501,-320,1382,104550,2
94.73163151741028,-1499,-316,1426,104573,2
94.77121925354004,-1467,-331,1392,104608,2
94.81121730804443,-1456,-355,1444,104643,2
94.8502471446991,-1395,-352,1452,104700,2
94.89028000831604,-1305,-339,1393,104742,2
94.93023371696472,-1336,-347,1356,104790,2
94.97025465965271,-1397,-354,1390,104811,2
95.01025366783142,-1398,-364,1368,104830,2
95.05021166801453,-1324,-354,1398,104814,2
95.09022808074951,-1501,-416,1439,104677,2
95.13027453422546,-1439,-384,1460,104445,2
95.17027235031128,-1427,-365,1471,104257,2
95.21025729179382,-1453,-397,1454,104230,2
95.24950742721558,-1436,-407,1451,104254,2
95.28922605514526,-1486,-428,1362,104303,2
95.32922101020813,-1364,-331,1462,104378,2
95.36930561065674,-1352,-396,1432,104415,2
95.40935707092285,-1342,-413,1410,104426,2
95.44961333274841,-1372,-393,1434,104461,2
95.4892361164093,-1429,-403,1411,104488,2
95.52928137779236,-1456,-396,1409,104497,2
95.5692355632782,-1446,-397,1443,104520,2
95.60927605628967,-1394,-413,1384,104588,2
95.64924931526184,-1457,-405,1351,104632,2
95.68821883201599,-1456,-406,1475,104672,2
95.728262424469,-1442,-451,1445,104708,2
95.76829314231873,-1357,-437,1499,104749,2
95.80823802947998,-1302,-435,1444,104747,2
95.84853100776672,-1367,-469,1425,104636,2
95.88839340209961,-1392,-464,1433,104504,2
95.92825055122375,-1346,-460,1374,104438,2
95.96822929382324,-1385,-440,1367,104422,2
96.00823760032654,-1360,-392,1382,104423,2
96.04829740524292,-1433,-390,1425,104465,2
96.08824968338013,-1323,-383,1403,104512,2
96.12724685668945,-1374,-394,1491,104559,2
96.16724252700806,-1367,-396,1426,104598,2
96.20725989341736,-1382,-390,1458,104637,2
96.24728274345398,-1446,-425,1451,104656,2
96.28722739219666,-1417,-422,1477,104690,2
96.32729959487915,-1391,-424,1486,104696,2
96.36719059944153,-1358,-420,1499,104695,2
96.40728616714478,-1346,-419,1527,104686,2
96.44724321365356,-1383,-443,1487,104708,2
96.4872784614563,-1381,-448,1496,104733,2
96.52622246742249,-1355,-424,1514,104777,2
96.56627225875854,-1286,-411,1477,104818,2
96.60626912117004,-1284,-399,1487,104799,2
96.6462070941925,-1321,-387,1453,104650,2
96.68624448776245,-1318,-385,1438,104551,2
96.72623538970947,-1352,-403,1484,104518,2
96.76625227928162,-1321,-394,1460,104489,2
96.8064215183258,-1293,-370,1401,104446,2
96.84621286392212,-1318,-375,1433,104441,2
96.88631939888,-1338,-377,1461,104457,2
96.92624592781067,-1352,-369,1465,104468,2
96.96543288230896,-1364,-366,1488,104492,2
97.00532674789429,-1351,-355,1503,104541,2
97.0452811717987,-1380,-362,1462,104606,2
97.08529829978943,-1410,-360,1469,104649,2
97.12537026405334,-1436,-392,1436,104683,2
97.1662278175354,-1435,-425,1478,104690,2
97.20557284355164,-1402,-398,1480,104699,2
97.24524593353271,-1278,-396,1390,104700,2
97.2856776714325,-1440,-394,1532,104706,2
97.32524824142456,-1374,-342,1464,104749,2
97.36543035507202,-1282,-284,1428,104802,2
97.40423321723938,-1450,-321,1507,104812,2
97.44426202774048,-1490,-395,1523,104851,2
97.4842426776886,-1447,-394,1413,104900,2
97.52423763275146,-1344,-366,1350,104878,2
97.56433010101318,-1323,-371,1288,104734,2
97.60426163673401,-1453,-406,1321,104611,2
97.64424133300781,-1544,-441,1412,104554,2
97.68428468704224,-1452,-395,1299,104552,2
97.72424530982971,-1481,-413,1283,104539,2
97.76423764228821,-1425,-403,1349,104562,2
97.80325651168823,-1437,-413,1397,104584,2
97.84323525428772,-1406,-396,1417,104604,2
97.88330817222595,-1409,-361,1456,104621,2
97.92324614524841,-1424,-359,1449,104668,2
97.96327948570251,-1433,-381,1496,104687,2
98.00325393676758,-1492,-403,1504,104732,2
98.04324746131897,-1492,-430,1471,104744,2
98.08329129219055,-1465,-431,1473,104740,2
98.12328386306763,-1362,-419,1407,104781,2
98.16325211524963,-1325,-401,1368,104807,2
98.20326614379883,-1303,-393,1335,104862,2
98.24224305152893,-1351,-395,1328,104883,2
98.28245139122009,-1422,-398,1342,104924,2
98.32228922843933,-1414,-367,1366,104969,2
98.36227107048035,-1419,-344,1323,104982,2
98.40223574638367,-1476,-347,1374,104815,2
98.44227504730225,-1444,-330,1380,104681,2
98.48276019096375,-1432,-327,1497,104606,2
98.52225136756897,-1433,-351,1481,104547,2
98.56226754188538,-1448,-380,1495,104524,2
98.60226106643677,-1408,-388,1469,104543,2
98.64225745201111,-1353,-374,1434,104564,2
98.68128156661987,-1358,-407,1412,104608,2
98.72125005722046,-1374,-414,1398,104641,2
98.76125144958496,-1379,-410,1368,104658,2
98.80125451087952,-1407,-410,1413,104715,2
98.84126210212708,-1427,-401,1411,104755,2
98.88142848014832,-1441,-395,1376,104774,2
98.9212737083435,-1454,-395,1389,104774,2
98.96127200126648,-1454,-402,1368,104785,2
99.0012993812561,-1415,-411,1389,104794,2
99.04123878479004,-1389,-401,1423,104802,2
99.08130526542664,-1409,-393,1470,104857,2
99.12024784088135,-1415,-400,1476,104896,2
99.1602418422699,-1437,-417,1441,104936,2
99.20064091682434,-1396,-410,1403,104949,2
99.24025988578796,-1431,-419,1424,104801,2
99.28035306930542,-1421,-432,1431,104681,2
99.32025790214539,-1371,-418,1411,104617,2
99.3602945804596,-1354,-407,1390,104604,2
99.40035891532898,-1392,-420,1389,104567,2
99.44026112556458,-1430,-431,1376,104579,2
99.48026299476624,-1418,-429,1358,104615,2
99.52025699615479,-1443,-429,1366,104650,2
99.55929613113403,-1445,-417,1375,104687,2
99.59927201271057,-1431,-410,1368,104719,2
99.63926434516907,-1430,-423,1398,104768,2
99.67929244041443,-1399,-434,1438,104817,2
99.71925950050354,-1378,-410,1506,104857,2
99.7592544555664,-1377,-422,1447,104898,2
99.79929804801941,-1425,-417,1462,104896,2
99.839280128479,-1439,-429,1426,104894,2
99.87932658195496,-1409,-420,1394,104905,2
99.91928791999817,-1397,-416,1401,104936,2
99.95826649665833,-1382,-421,1393,104983,2
99.9984803199768,-1370,-431,1386,105033,2
100.03831100463867,-1395,-424,1415,105065,2
100.07826447486877,-1398,-424,1394,105109,2
100.118399143219,-1370,-409,1418,105141,2
100.15827870368958,-1336,-400,1405,105165,2
100.19834661483765,-1435,-436,1459,105066,2
100.23824882507324,-1404,-406,1465,104838,2
100.27825117111206,-1354,-396,1451,104719,2
100.31831741333008,-1363,-412,1445,104687,2
100.35826778411865,-1388,-390,1450,104719,2
100.39728951454163,-1370,-385,1434,104768,2
100.4372627735138,-1395,-378,1410,104807,2
100.4772789478302,-1439,-400,1433,104819,2
100.51733779907227,-1427,-429,1448,104838,2
100.55728673934937,-1394,-442,1450,104872,2
100.5973014831543,-1339,-429,1436,104893,2
100.63727855682373,-1352,-428,1423,104906,2
100.67727446556091,-1326,-441,1409,104918,2
100.71726131439209,-1323,-398,1459,104919,2
100.75729155540466,-1363,-427,1435,104919,2
100.79728031158447,-1368,-395,1467,104947,2
100.83727645874023,-1354,-433,1500,104973,2
100.87627696990967,-1367,-434,1452,105005,2
100.9162745475769,-1344,-408,1450,105046,2
100.95627760887146,-1362,-426,1423,105075,2
100.99627232551575,-1346,-423,1438,105094,2
101.03628659248352,-1371,-439,1474,105025,2
101.0762984752655,-1379,-429,1500,104818,2
101.11625838279724,-1386,-438,1462,104672,2
101.15631246566772,-1358,-429,1441,104598,2
101.19633603096008,-1330,-426,1446,104576,2
101.23627853393555,-1357,-441,1471,104560,2
101.27632284164429,-1337,-435,1442,104611,2
101.31591725349426,-1368,-425,1454,104663,2
101.3552987575531,-1389,-428,1465,104703,2
101.39529275894165,-1373,-432,1445,104717,2
101.43533253669739,-1357,-429,1463,104770,2
101.47527074813843,-1374,-464,1456,104827,2
101.51594042778015,-1362,-435,1462,104898,2
101.55529236793518,-1328,-447,1403,104934,2
101.59528064727783,-1358,-458,1442,104952,2
101.63536286354065,-1362,-464,1469,104953,2
101.67528581619263,-1318,-449,1478,104969,2
101.71675705909729,-1349,-447,1461,104995,2
101.75529193878174,-1395,-448,1463,105047,2
101.79430723190308,-1409,-440,1485,105131,2
101.83442258834839,-1352,-440,1366,105221,2
101.87430047988892,-1374,-431,1407,105289,2
101.91428709030151,-1394,-490,1420,105261,2
101.95431709289551,-1354,-492,1513,105100,2
101.9942786693573,-1297,-458,1475,105005,2
102.03428649902344,-1355,-473,1461,104970,2
102.07428050041199,-1340,-441,1454,104983,2
102.11433982849121,-1333,-442,1445,104988,2
102.15428042411804,-1387,-460,1471,104966,2
102.19429087638855,-1433,-473,1470,105010,2
102.23341751098633,-1342,-445,1451,105042,2
102.27329540252686,-1313,-434,1462,105070,2
102.34915113449097,-1377,-448,1455,105089,2
102.35327959060669,-1389,-467,1463,105137,2
102.39329266548157,-1335,-449,1447,105176,2
102.43352556228638,-1336,-446,1457,105201,2
102.47334003448486,-1327,-449,1448,105222,2
102.51337814331055,-1330,-446,1431,105216,2
102.55332660675049,-1350,-442,1449,105211,2
102.59332251548767,-1378,-442,1455,105210,2
102.63332152366638,-1359,-435,1457,105250,2
102.67233848571777,-1356,-442,1445,105286,2
102.71230864524841,-1338,-410,1440,105314,2
102.75232005119324,-1396,-459,1447,105235,2
102.79231762886047,-1368,-447,1458,105103,2
102.83298349380493,-1344,-419,1494,105011,2
102.87242913246155,-1372,-444,1484,105025,2
102.91230726242065,-1359,-421,1459,105030,2
102.95231080055237,-1389,-452,1454,105036,2
102.99230599403381,-1335,-436,1423,105033,2
103.03324389457703,-1365,-450,1441,105025,2
103.07228016853333,-1368,-461,1438,105044,2
103.11229729652405,-1362,-448,1440,105061,2
103.15128827095032,-1380,-460,1440,105093,2
103.19128966331482,-1381,-466,1446,105138,2
103.231365442276,-1353,-444,1454,105189,2
103.27128458023071,-1302,-419,1447,105214,2
103.31137752532959,-1333,-419,1453,105255,2
103.35135245323181,-1394,-438,1466,105266,2
103.39134907722473,-1401,-457,1468,105261,2
103.43134760856628,-1340,-451,1435,105236,2
103.47129559516907,-1347,-448,1493,105239,2
103.51135087013245,-1322,-429,1378,105228,2
103.55132293701172,-1436,-432,1432,105108,2
103.59030032157898,-1440,-453,1458,104955,2
103.63034224510193,-1374,-436,1451,104896,2
103.67034912109375,-1375,-438,1457,104915,2
103.71035838127136,-1352,-426,1431,104942,2
103.75034809112549,-1371,-435,1412,104981,2
103.79032754898071,-1319,-438,1344,105008,2
103.83030271530151,-1357,-439,1443,104993,2
103.8703989982605,-1400,-417,1438,104991,2
103.91037702560425,-1343,-399,1411,104960,2
103.95051527023315,-1418,-415,1482,104969,2
103.99039030075073,-1425,-402,1490,104992,2
104.03046202659607,-1435,-419,1471,105035,2
104.06929564476013,-1411,-420,1450,105074,2
104.10944437980652,-1358,-414,1385,105103,2
104.14941883087158,-1392,-441,1394,105155,2
104.18934631347656,-1386,-424,1383,105173,2
104.2293450832367,-1362,-411,1367,105209,2
104.26930689811707,-1396,-413,1428,105207,2
104.30932354927063,-1356,-389,1396,105223,2
104.34952807426453,-1440,-399,1459,105078,2
104.38932633399963,-1451,-424,1456,104878,2
104.42934727668762,-1400,-412,1452,104775,2
104.46930885314941,-1391,-405,1430,104785,2
104.50833296775818,-1394,-418,1401,104789,2
104.54833197593689,-1460,-451,1429,104824,2
104.58834052085876,-1360,-404,1406,104861,2
104.62834429740906,-1353,-409,1436,104886,2
104.6683521270752,-1411,-429,1436,104904,2
104.70832133293152,-1396,-405,1431,104957,2
104.74839544296265,-1447,-438,1396,104954,2
104.78832983970642,-1405,-432,1464,104948,2
104.82837748527527,-1352,-416,1436,104978,2
104.86834049224854,-1373,-421,1436,104982,2
104.90831232070923,-1378,-444,1410,105032,2
104.9473283290863,-1376,-408,1472,105078,2
104.98732876777649,-1353,-419,1424,105124,2
105.02735114097595,-1393,-427,1412,105157,2
105.06732392311096,-1414,-434,1437,105199,2
105.1073362827301,-1387,-435,1449,105232,2
105.14733028411865,-1340,-406,1439,105248,2
105.18734049797058,-1377,-433,1446,105152,2
105.22733497619629,-1379,-424,1459,104926,2
105.26740670204163,-1375,-413,1433,104791,2
105.30734992027283,-1401,-431,1452,104762,2
105.3473105430603,-1328,-411,1383,104808,2
105.38633728027344,-1276,-369,1282,104855,2
105.42634153366089,-1434,-410,1397,104853,2
105.4663918018341,-1497,-438,1571,104844,2
105.50633072853088,-1418,-428,1593,104846,2
105.54632067680359,-1382,-425,1564,104866,2
105.58631205558777,-1341,-415,1542,104880,2
105.6263267993927,-1305,-426,1446,104902,2
105.66662645339966,-1308,-425,1376,104903,2
105.70634150505066,-1324,-431,1355,104930,2
105.74632811546326,-1351,-438,1345,104948,2
105.78634786605835,-1390,-449,1453,104980,2
105.82533955574036,-1350,-426,1464,105016,2
105.86563205718994,-1323,-413,1495,105030,2
105.90533709526062,-1345,-414,1495,105052,2
105.94533586502075,-1360,-393,1426,105114,2
105.98539876937866,-1419,-409,1438,105028,2
106.02537274360657,-1396,-421,1444,104807,2
106.06583833694458,-1405,-429,1410,104628,2
106.10537099838257,-1385,-462,1429,104552,2
106.1453595161438,-1412,-483,1457,104505,2
106.18558931350708,-1337,-477,1426,104517,2
106.22535800933838,-1190,-395,1341,104563,2
106.26438593864441,-1410,-446,1438,104582,2
106.30442476272583,-1367,-410,1488,104573,2
106.344393491745,-1258,-410,1517,104560,2
106.38450789451599,-1310,-464,1519,104580,2
106.42449307441711,-1563,-505,1517,104675,2
106.46439838409424,-1417,-485,1432,104727,2
106.50436329841614,-1408,-493,1433,104717,2
106.5443708896637,-1352,-488,1419,104646,2
106.58436846733093,-1346,-502,1439,104641,2
106.62442374229431,-1265,-464,1378,104710,2
106.66336131095886,-1374,-480,1373,104763,2
106.70339035987854,-1331,-459,1447,104812,2
106.7433910369873,-1296,-470,1476,104860,2
106.78339385986328,-1328,-475,1487,104909,2
106.82343602180481,-1246,-459,1472,104849,2
106.8635823726654,-1266,-450,1492,104597,2
106.90370512008667,-1414,-500,1560,104401,2
106.94342923164368,-1294,-514,1567,104306,2
106.98386287689209,-1229,-473,1538,104303,2
107.02344942092896,-1269,-470,1523,104316,2
107.06368732452393,-1278,-473,1473,104367,2
107.10237288475037,-1289,-459,1465,104421,2
107.1423807144165,-1318,-477,1523,104428,2
107.18267130851746,-1315,-469,1554,104475,2
107.22236752510071,-1262,-439,1470,104533,2
107.26238656044006,-1308,-441,1469,104625,2
107.3023955821991,-1333,-452,1455,104660,2
107.34240174293518,-1315,-430,1498,104692,2
107.38277268409729,-1312,-445,1413,104726,2
107.422372341156,-1346,-450,1488,104733,2
107.46239757537842,-1328,-444,1536,104773,2
107.50238919258118,-1287,-431,1527,104821,2
107.54135751724243,-1338,-442,1541,104866,2
107.58135795593262,-1307,-428,1663,104895,2
107.62136507034302,-1323,-465,1617,104950,2
107.66141319274902,-1274,-431,1528,104996,2
107.70134568214417,-1247,-416,1423,105049,2
107.74133658409119,-1247,-407,1446,105048,2
107.78144550323486,-1318,-414,1521,104817,2
107.82137560844421,-1333,-356,1484,104590,2
107.86138343811035,-1423,-355,1554,104471,2
107.9014961719513,-1373,-354,1508,104516,2
107.94039916992188,-1308,-358,1441,104577,2
107.98036575317383,-1293,-375,1446,104628,2
108.02035069465637,-1262,-398,1454,104671,2
108.06037855148315,-1277,-396,1477,104702,2
108.1003930568695,-1307,-376,1481,104725,2
108.14038181304932,-1358,-374,1477,104745,2
108.18036675453186,-1401,-388,1587,104789,2
108.22039484977722,-1328,-375,1573,104794,2
108.2603530883789,-1258,-371,1505,104827,2
108.30052137374878,-1246,-378,1501,104853,2
108.34036231040955,-1262,-389,1478,104909,2
108.37940835952759,-1301,-417,1492,104955,2
108.41936230659485,-1325,-393,1529,104996,2
108.45936393737793,-1315,-374,1530,105044,2
108.50006437301636,-1290,-362,1480,105077,2
108.53940510749817,-1290,-372,1503,105138,2
108.5793948173523,-1297,-408,1480,105134,2
108.619375705719,-1322,-396,1536,105116,2
108.65942668914795,-1338,-425,1509,105106,2
108.69972920417786,-1264,-398,1434,105060,2
108.73944807052612,-1363,-386,1483,104883,2
108.77838182449341,-1353,-395,1478,104678,2
108.81842565536499,-1339,-395,1503,104598,2
108.85837030410767,-1386,-426,1541,104587,2
108.89844965934753,-1365,-472,1533,104582,2
108.93842601776123,-1249,-436,1503,104589,2
108.97836875915527,-1219,-400,1426,104586,2
109.01838898658752,-1345,-430,1555,104575,2
109.05834150314331,-1335,-449,1545,104540,2
109.09853434562683,-1374,-445,1548,104566,2
109.13837885856628,-1461,-446,1425,104615,2
109.17836332321167,-1422,-456,1382,104669,2
109.2174551486969,-1333,-433,1490,104717,2
109.25739026069641,-1243,-413,1436,104771,2
109.29811692237854,-1264,-417,1508,104798,2
109.33737516403198,-1257,-436,1577,104825,2
109.37738728523254,-1257,-432,1525,104874,2
109.41735100746155,-1306,-414,1536,104907,2
109.45737957954407,-1323,-413,1506,104898,2
109.49752259254456,-1351,-412,1472,104902,2
109.53742957115173,-1363,-399,1518,104923,2
109.57739663124084,-1363,-412,1558,104934,2
109.61735582351685,-1317,-399,1508,104951,2
109.65638256072998,-1287,-404,1487,104785,2
109.69644618034363,-1282,-436,1419,104540,2
109.73637437820435,-1379,-464,1477,104446,2
109.7763569355011,-1451,-490,1424,104442,2
109.81635880470276,-1315,-384,1380,104469,2
109.85638451576233,-1257,-357,1378,104440,2
109.89637660980225,-1352,-376,1478,104401,2
109.9363956451416,-1339,-389,1546,104371,2
109.9764392375946,-1380,-419,1533,104345,2
110.01639747619629,-1368,-395,1491,104406,2
110.05541801452637,-1332,-383,1414,104474,2
110.09538054466248,-1341,-384,1407,104531,2
110.13540148735046,-1407,-405,1440,104572,2
110.17543649673462,-1372,-437,1446,104656,2
110.21601867675781,-1385,-432,1527,104673,2
110.25536465644836,-1397,-440,1539,104715,2
110.29546403884888,-1354,-411,1497,104747,2
110.33540439605713,-1354,-427,1509,104735,2
110.37539148330688,-1412,-408,1502,104749,2
110.415851354599,-1312,-418,1437,104794,2
110.4554283618927,-1318,-408,1451,104832,2
110.49439430236816,-1318,-442,1468,104910,2
110.53438925743103,-1304,-486,1450,105004,2
110.57440447807312,-1263,-470,1492,105059,2
110.61438775062561,-1228,-425,1484,104884,2
110.65443277359009,-1212,-383,1469,104698,2
110.69437837600708,-1348,-409,1525,104614,2
110.73437023162842,-1361,-395,1544,104503,2
110.77442717552185,-1427,-423,1482,104495,2
110.81439185142517,-1372,-400,1442,104579,2
110.85437941551208,-1361,-397,1434,104628,2
110.89437294006348,-1320,-413,1426,104675,2
110.93369650840759,-1322,-406,1488,104736,2
110.97343349456787,-1335,-406,1503,104777,2
111.01342630386353,-1315,-399,1543,104834,2
111.05341148376465,-1281,-384,1627,104864,2
111.0934362411499,-1323,-407,1579,104911,2
111.13338303565979,-1314,-417,1501,104926,2
111.17341208457947,-1317,-416,1540,104950,2
111.21340370178223,-1295,-429,1463,104968,2
111.25345253944397,-1316,-421,1480,104962,2
111.29340124130249,-1320,-438,1458,104998,2
111.33255243301392,-1307,-414,1469,105050,2
111.37243247032166,-1307,-414,1422,105090,2
111.41239786148071,-1293,-398,1443,105120,2
111.45273518562317,-1332,-419,1451,105023,2
111.49244713783264,-1360,-416,1493,104806,2
111.53258919715881,-1346,-412,1465,104678,2
111.57246375083923,-1338,-428,1485,104637,2
111.6124062538147,-1320,-424,1508,104640,2
111.65243244171143,-1339,-420,1476,104640,2
111.6924147605896,-1341,-391,1501,104647,2
111.73265051841736,-1337,-401,1539,104638,2
111.77249240875244,-1354,-413,1551,104650,2
111.81143355369568,-1332,-410,1546,104661,2
111.85219311714172,-1324,-427,1487,104705,2
111.89142036437988,-1318,-437,1469,104767,2
111.93185782432556,-1358,-446,1451,104801,2
111.9713830947876,-1273,-405,1388,104832,2
112.0114233493805,-1322,-423,1457,104645,2
112.05138421058655,-1416,-446,1504,104430,2
112.09142184257507,-1333,-390,1500,104343,2
112.13141226768494,-1294,-381,1520,104299,2
112.17153477668762,-1325,-396,1549,104297,2
