Timestamp,AccX,AccY,AccZ,Heart_IR,Phase
0.009644269943237305,-556,42,1999,112276,0
0.04968595504760742,-618,48,1941,112252,0
0.08957624435424805,-588,51,1905,112378,0
0.12855982780456543,-595,53,1870,112421,0
0.1685645580291748,-575,68,1895,112533,0
0.20854759216308594,-589,68,1893,112691,0
0.24852395057678223,-589,64,1957,112745,0
0.2885096073150635,-598,58,2006,112818,0
0.3285257816314697,-573,74,2073,112917,0
0.3685038089752197,-617,72,1993,113036,0
0.40888261795043945,-599,68,1952,113076,0
0.44851160049438477,-580,86,1987,113069,0
0.48867321014404297,-584,93,1920,113054,0
0.5287075042724609,-612,52,1955,113050,0
0.5685005187988281,-616,46,1933,113092,0
0.6084918975830078,-567,10,1942,113125,0
0.6479713916778564,-559,77,1956,113168,0
0.6875219345092773,-503,88,1974,113212,0
0.7275335788726807,-465,108,1968,113374,0
0.7675573825836182,-489,162,1939,113549,0
0.8075504302978516,-444,167,1962,113478,0
0.8475310802459717,-484,163,1925,112833,0
0.8879227638244629,-581,129,1984,112474,0
0.9275717735290527,-592,96,2039,112469,0
0.9675188064575195,-521,-21,1945,112514,0
1.0075464248657227,-515,-67,1954,112438,0
1.0479590892791748,-533,-18,1996,112422,0
1.087589979171753,-548,32,1960,112506,0
1.127547264099121,-562,55,1957,112528,0
1.1665246486663818,-523,62,1951,112535,0
1.206498622894287,-578,-3,1928,112581,0
1.246530294418335,-585,11,2009,112646,0
1.2865047454833984,-567,24,1960,112736,0
1.3266301155090332,-530,35,1899,112804,0
1.3664956092834473,-563,70,1942,112834,0
1.4069201946258545,-586,42,1956,112855,0
1.4465022087097168,-592,33,2028,112840,0
1.4865455627441406,-574,22,2011,112850,0
1.5265181064605713,-564,26,1992,112875,0
1.566544771194458,-547,38,1958,112935,0
1.6071996688842773,-531,43,1964,112993,0
1.6455276012420654,-541,26,1967,113044,0
1.6855158805847168,-562,20,1974,113118,0
1.7255210876464844,-548,15,1947,113162,0
1.7654976844787598,-580,12,1954,112748,0
1.8054962158203125,-543,15,1961,112254,0
1.845517635345459,-554,25,1972,112146,0
1.8855359554290771,-525,16,1974,112211,0
1.9254968166351318,-539,13,1976,112198,0
1.965682029724121,-542,11,1988,112146,0
2.005599021911621,-567,21,1963,112190,0
2.0458366870880127,-549,9,1973,112178,0
2.0856549739837646,-577,4,1983,112180,0
2.124624729156494,-576,6,1971,112246,0
2.165597677230835,-576,9,1952,112352,0
2.2046079635620117,-584,14,1943,112448,0
2.2446320056915283,-553,21,1944,112542,0
2.284677743911743,-567,18,1965,112622,0
2.3246519565582275,-561,7,1979,112716,0
2.364626884460449,-572,22,1977,112799,0
2.4045956134796143,-576,22,1976,112891,0
2.444779872894287,-592,32,1977,112946,0
2.4846818447113037,-581,35,1966,112965,0
2.5246529579162598,-555,14,1995,112978,0
2.564739465713501,-593,5,1962,113080,0
2.6045987606048584,-592,15,1911,113181,0
2.6437020301818848,-603,0,1912,112978,0
2.6836671829223633,-586,12,1942,112336,0
2.7236366271972656,-550,12,1941,112074,0
2.7636165618896484,-562,17,1956,112129,0
2.803596258163452,-564,9,1952,112203,0
2.843628168106079,-580,-1,1927,112203,0
2.8836867809295654,-572,1,1930,112254,0
2.9237358570098877,-598,-8,1913,112230,0
2.9636223316192627,-568,-23,1930,112125,0
3.0042686462402344,-572,-32,1924,112130,0
3.043675184249878,-593,-47,1896,112203,0
3.0836384296417236,-607,-47,1923,112282,0
3.1226255893707275,-595,-42,1937,112344,0
3.1626522541046143,-570,-52,1955,112375,0
3.202634811401367,-585,-72,1943,112382,0
3.2426886558532715,-602,-64,2013,112396,0
3.282691478729248,-601,-111,2055,112422,0
3.322641611099243,-652,-111,1997,112476,0
3.3628768920898438,-622,-94,1969,112514,0
3.402639627456665,-643,-109,1937,112567,0
3.4427106380462646,-638,-106,1938,112613,0
3.482633352279663,-638,-129,1898,112519,0
3.5226614475250244,-671,-138,1937,112022,0
3.562633991241455,-661,-149,1938,111685,0
3.6027822494506836,-652,-144,1900,111682,0
3.6416683197021484,-622,-154,1856,111739,0
3.6816511154174805,-595,-158,1848,111719,0
3.722064971923828,-607,-192,1874,111767,0
3.76161527633667,-626,-219,1923,111775,0
3.802149772644043,-637,-262,1977,111707,0
3.8420772552490234,-637,-270,2030,111657,0
3.881664514541626,-625,-262,2004,111713,0
3.9216902256011963,-609,-262,1977,111758,0
3.961641788482666,-591,-256,1976,111796,0
4.001681327819824,-604,-284,1933,111823,0
4.041659832000732,-593,-273,1890,111855,0
4.081756591796875,-557,-275,1915,111895,0
4.120633602142334,-603,-293,1943,111941,0
4.160676956176758,-641,-315,1924,112009,0
4.200698375701904,-633,-279,1902,112080,0
4.240630149841309,-634,-293,1869,112126,0
4.280749320983887,-706,-301,1923,112166,0
4.3207032680511475,-711,-321,1941,112203,0
4.360650300979614,-727,-307,1965,112240,0
4.400733947753906,-686,-299,1910,112166,0
4.440692901611328,-721,-320,1902,111661,0
4.480600833892822,-712,-305,1931,111299,0
4.520626544952393,-739,-318,1916,111296,0
4.560643672943115,-753,-310,1881,111374,0
4.599669694900513,-721,-302,1864,111365,0
4.63979959487915,-724,-284,1865,111422,0
4.679712295532227,-745,-294,1870,111484,0
4.719682931900024,-744,-314,1931,111475,0
4.759911298751831,-764,-323,1950,111456,0
4.799622058868408,-727,-327,1902,111494,0
4.8396196365356445,-698,-290,1894,111578,0
4.879635810852051,-665,-297,1875,111616,0
4.919635772705078,-701,-322,1895,111616,0
4.959784030914307,-679,-337,1828,111689,0
4.999680519104004,-678,-349,1811,111743,0
5.039628267288208,-687,-308,1830,111799,0
5.079659700393677,-702,-316,1832,111852,0
5.11858057975769,-710,-294,1841,111884,0
5.1586010456085205,-730,-296,1852,111960,0
5.19877028465271,-773,-324,1827,112073,0
5.23865818977356,-780,-323,1824,112143,0
5.278594255447388,-840,-328,1798,112198,0
5.318607330322266,-849,-350,1784,112252,0
5.359039545059204,-866,-330,1833,112279,0
5.398637056350708,-894,-345,1826,112377,0
5.439022541046143,-942,-384,1791,112263,0
5.478708267211914,-935,-367,1822,111649,0
5.51860785484314,-944,-378,1859,111346,0
5.558610439300537,-987,-393,1852,111386,0
5.597806453704834,-919,-387,1840,111470,0
5.63768196105957,-966,-399,1834,111442,0
5.677792072296143,-942,-403,1830,111480,0
5.717650890350342,-930,-400,1819,111523,0
5.758118629455566,-956,-421,1809,111488,0
5.797677278518677,-895,-412,1819,111493,0
5.837614297866821,-897,-408,1794,111556,0
5.877725839614868,-888,-408,1819,111594,0
5.917637586593628,-875,-425,1810,111657,0
5.9576075077056885,-882,-425,1811,111691,0
5.997653484344482,-828,-404,1812,111741,0
6.0383312702178955,-843,-398,1784,111809,0
6.077735662460327,-854,-413,1783,111890,0
6.116592168807983,-853,-399,1805,111970,0
6.1568214893341064,-851,-405,1810,112038,0
6.1967082023620605,-870,-394,1831,112112,0
6.236638307571411,-842,-384,1831,112184,0
6.276693105697632,-864,-385,1834,112251,0
6.3166468143463135,-870,-348,1779,112366,0
6.356719017028809,-880,-295,1690,112447,0
6.396603584289551,-968,-310,1741,112476,0
6.436635971069336,-994,-308,1818,112470,0
6.476607799530029,-1007,-360,1883,112476,0
6.51663875579834,-1024,-388,1890,112175,0
6.556661367416382,-955,-363,1857,111617,0
6.596577882766724,-895,-361,1802,111457,0
6.6356494426727295,-865,-357,1801,111567,0
6.6756486892700195,-862,-345,1806,111664,0
6.716051340103149,-814,-375,1760,111694,0
6.755629539489746,-855,-362,1791,111779,0
6.795588970184326,-820,-355,1774,111842,0
6.835633039474487,-827,-334,1817,111826,0
6.875730037689209,-811,-318,1864,111822,0
6.9162232875823975,-780,-309,1854,111879,0
6.955756664276123,-843,-313,1851,111965,0
6.995621204376221,-849,-326,1854,112043,0
7.0362584590911865,-837,-305,1832,112115,0
7.075809717178345,-817,-311,1853,112161,0
7.1146180629730225,-821,-318,1851,112221,0
7.154638290405273,-827,-331,1851,112291,0
7.194599151611328,-821,-329,1827,112378,0
7.2346038818359375,-798,-294,1828,112490,0
7.274609804153442,-785,-283,1812,112605,0
7.314983129501343,-809,-288,1825,112714,0
7.354628086090088,-806,-298,1852,112788,0
7.394614219665527,-851,-291,1850,112887,0
7.434891223907471,-846,-283,1832,112957,0
7.474614143371582,-819,-267,1835,113051,0
7.51460599899292,-838,-270,1821,113141,0
7.554981708526611,-825,-255,1861,112788,0
7.594626188278198,-858,-265,1885,112061,0
7.633662462234497,-836,-260,1851,111915,0
7.674025535583496,-828,-264,1871,112078,0
7.713653564453125,-815,-275,1861,112265,0
7.7537901401519775,-799,-271,1841,112311,0
7.793687343597412,-789,-276,1819,112349,0
7.833641529083252,-782,-268,1875,112279,0
7.873595237731934,-776,-290,1859,112220,0
7.91360068321228,-799,-274,1898,112217,0
7.953644752502441,-784,-288,1871,112300,0
7.993628263473511,-780,-290,1881,112427,0
8.033653497695923,-772,-299,1867,112498,0
8.07362174987793,-758,-294,1853,112587,0
8.112596988677979,-742,-287,1847,112649,0
8.152709722518921,-768,-300,1870,112750,0
8.192615032196045,-767,-308,1842,112867,0
8.232784986495972,-780,-294,1868,112968,0
8.272634506225586,-785,-297,1884,113037,0
8.312577486038208,-761,-314,1878,113126,0
8.352594375610352,-764,-296,1892,113222,0
8.392589569091797,-721,-320,1909,113286,0
8.432606220245361,-713,-290,1892,113354,0
8.472697973251343,-699,-328,1854,112718,0
8.512586832046509,-719,-315,1935,112069,0
8.552579402923584,-701,-322,1899,112033,0
8.592670679092407,-687,-314,1869,112221,0
8.632262945175171,-674,-307,1904,112337,0
8.671761274337769,-696,-318,1887,112375,0
8.711679935455322,-721,-317,1872,112490,0
8.751617193222046,-720,-320,1881,112493,0
8.791987419128418,-739,-308,1870,112466,0
8.831597566604614,-709,-307,1874,112475,0
8.871592998504639,-663,-330,1894,112577,0
8.911624193191528,-716,-342,1902,112712,0
8.951584577560425,-697,-321,1924,112813,0
8.992367506027222,-719,-318,1924,112880,0
9.032055616378784,-713,-257,1839,113004,0
9.071650266647339,-768,-254,1751,113088,0
9.112646579742432,-828,-277,1829,113080,0
9.150662183761597,-820,-295,1860,113077,0
9.191001892089844,-786,-314,1871,113099,0
9.23059344291687,-751,-261,1918,113187,0
9.270995855331421,-806,-259,1908,113312,0
9.310584783554077,-758,-260,1951,113413,0
9.350630283355713,-726,-257,1830,113568,0
9.390727758407593,-740,-253,1761,113395,0
9.430602788925171,-822,-303,1851,112551,0
9.470614433288574,-861,-361,1828,112229,0
9.510602474212646,-868,-366,1853,112345,0
9.550602197647095,-824,-397,1915,112520,0
9.590577840805054,-767,-435,2102,112552,0
9.630650758743286,-666,-427,2114,112642,0
9.669614315032959,-442,-425,2027,112753,0
9.710384607315063,-375,-371,1955,112769,0
9.749641418457031,-365,-386,1883,112783,0
9.789605855941772,-466,-390,1897,112877,0
9.829608917236328,-624,-264,1871,112989,0
9.86965036392212,-631,-289,1819,113058,0
9.91025686264038,-841,-191,1912,113085,0
9.949601173400879,-716,-76,1912,113191,0
9.989597797393799,-767,-293,1913,113275,0
10.029613494873047,-825,-265,1837,113456,0
10.070008277893066,-508,-375,1689,113551,0
10.111254692077637,-769,-189,1848,113611,0
10.149604558944702,-636,105,1606,113822,0
10.188741445541382,-877,69,1594,113984,0
10.228609085083008,-1049,301,1919,114038,0
10.269111633300781,-854,210,2167,113882,0
10.308659791946411,-882,-36,2383,112991,0
10.348642110824585,-805,-281,2252,112532,0
10.38860821723938,-799,-221,1837,112772,0
10.42859697341919,-668,-127,1361,113282,0
10.46860146522522,-899,-13,1396,113333,0
10.50860047340393,-1108,75,1765,113263,0
10.548752546310425,-914,-33,1846,113234,0
10.588664054870605,-985,-213,1948,112988,0
10.628605365753174,-893,-322,2195,112754,0
10.66760540008545,-955,-361,2131,112769,0
10.70763349533081,-965,-442,1805,112900,0
10.747647285461426,-939,-358,1809,112961,0
10.787641525268555,-973,-266,1858,113046,0
10.82761001586914,-828,-240,1856,113143,0
10.86762547492981,-721,-232,1681,113443,0
10.907666444778442,-798,-139,1690,113517,0
10.947620391845703,-818,-13,1943,113555,0
10.987653732299805,-1036,-159,1803,113585,0
11.02762484550476,-1061,-155,1986,113579,0
11.06837797164917,-1063,-146,1845,113649,0
11.1076979637146,-1099,-158,1890,113637,0
11.147682189941406,-789,-222,1968,113111,0
11.186615705490112,-687,-237,1841,112553,0
11.226691961288452,-480,-229,1827,112502,0
11.266645669937134,-525,-301,1869,112681,0
11.30660367012024,-638,-278,1889,112759,0
11.346689701080322,-396,-93,1859,112826,0
11.386611938476562,-477,153,1604,113196,0
11.426904916763306,-631,76,1714,113195,0
11.466978549957275,-867,24,2066,113058,0
11.506613731384277,-1099,-126,2225,113004,0
11.546630382537842,-897,-35,2113,113200,0
11.586785078048706,-668,-11,1790,113476,0
11.626927852630615,-759,15,1790,113600,0
11.667159080505371,-722,34,1929,113633,0
11.705982685089111,-686,41,1915,113736,0
11.745710372924805,-755,49,1799,113883,0
11.785673379898071,-900,65,1737,114008,0
11.825599193572998,-935,43,1746,114104,0
11.865599870681763,-842,21,1706,114196,0
11.905624628067017,-845,2,1772,114238,0
11.945653676986694,-826,-10,1913,114252,0
11.985992908477783,-823,-18,1928,114223,0
12.025672674179077,-781,-23,1970,113545,0
12.065657377243042,-755,10,2013,112843,0
12.105970621109009,-726,-16,2118,112891,0
12.145629167556763,-659,-138,1961,113270,0
12.18560528755188,-574,-102,1928,113446,0
12.224623441696167,-552,-125,2046,113466,0
12.265053987503052,-562,-184,2143,113524,0
12.304615020751953,-461,-242,2155,113442,0
12.344624757766724,-297,-153,2216,113384,0
12.385021686553955,-145,-100,2090,113519,0
12.42461085319519,-289,-75,1897,113787,0
12.465332746505737,-536,-119,1778,113969,0
12.504660367965698,-798,-302,1857,113939,0
12.54460859298706,-909,-160,2004,113922,0
12.584639072418213,-617,-154,1840,114027,0
12.624795913696289,-640,12,1856,114129,0
12.664637088775635,-662,3,1747,114280,0
12.704612731933594,-882,-80,1801,114318,0
12.743738174438477,-990,-20,1857,114322,0
12.783621549606323,-769,38,1907,114317,0
12.823618650436401,-757,112,1911,114419,0
12.863587617874146,-732,64,1927,114348,0
12.903607606887817,-746,45,1970,113646,0
12.943684101104736,-648,40,2005,113140,0
12.983630180358887,-588,47,1992,113323,0
13.023977994918823,-462,-6,1996,113582,0
13.06362771987915,-427,-68,1982,113651,0
13.103699922561646,-384,-103,1985,113639,0
13.143741130828857,-418,-92,1953,113578,0
13.184011936187744,-368,-115,1951,113391,0
13.223644733428955,-409,-12,1982,113396,0
13.262636423110962,-362,-35,1914,113551,0
13.302645444869995,-370,-6,1961,113694,0
13.34261703491211,-408,24,2021,113803,0
13.38265872001648,-426,75,2011,113860,0
13.422749280929565,-464,93,1985,113980,0
13.462664365768433,-556,39,2005,114090,0
13.502625465393066,-643,-33,2137,114065,0
13.54335355758667,-528,-11,2204,114057,0
13.582645654678345,-344,93,2150,114124,0
13.62313461303711,-316,149,2055,114223,0
13.66267991065979,-470,220,1996,114333,0
13.70265531539917,-512,229,1979,114412,0
13.742647171020508,-477,167,2057,113990,0
13.781641483306885,-514,138,2161,113039,0
13.82163143157959,-468,148,2045,112982,0
13.86185073852539,-378,134,1809,113235,0
13.901718378067017,-330,-32,1909,113001,0
13.94168734550476,-346,1,1884,112973,0
13.981607675552368,-339,-18,1761,113096,0
14.022073984146118,-237,50,1833,113060,0
14.061643600463867,-155,155,1988,112957,0
14.101642847061157,-149,131,2092,112942,0
14.142042636871338,-184,146,2122,112935,0
14.181639671325684,-99,126,2162,112925,0
14.221636533737183,-163,55,2096,112865,0
14.261631965637207,-170,20,2104,112760,0
14.301643133163452,-145,10,2027,112754,0
14.340622901916504,-184,37,2009,112735,0
14.380642414093018,-219,54,2035,112755,0
14.420640707015991,-229,78,2168,112773,0
14.460662841796875,-211,51,2225,112939,0
14.500634670257568,-218,32,2181,113109,0
14.540610551834106,-219,24,2090,112966,0
14.580622673034668,-234,23,1969,112273,0
14.620627164840698,-233,25,1847,112016,0
14.6611807346344,-219,34,1791,112142,0
14.70067024230957,-246,53,1883,112321,0
14.740633964538574,-135,124,1906,112438,0
14.780694723129272,-166,89,1879,112638,0
14.821044445037842,-247,77,1975,112650,0
14.860331296920776,-328,-17,2046,112566,0
14.899627685546875,-446,0,2377,112486,0
14.93963098526001,-323,18,2445,112641,0
14.979605436325073,-142,33,2263,112919,0
15.019644737243652,-104,59,1966,113207,1
15.059674739837646,-147,40,1805,113440,1
15.099661111831665,-365,-39,1643,113590,1
15.139662981033325,-412,-121,1717,113581,1
15.179665088653564,-337,-106,1947,113532,1
15.219648122787476,-434,-46,2255,113556,1
15.260254144668579,-228,24,2302,113648,1
15.299711227416992,-201,66,2190,113695,1
15.33965802192688,-210,-4,2040,113109,1
15.378624439239502,-279,-33,1901,112702,1
15.418647289276123,-323,-72,1783,113038,1
15.459728240966797,-350,-115,1792,113377,1
15.499064922332764,-344,-137,1872,113477,1
15.539036273956299,-237,-174,1936,113532,1
15.578666925430298,-298,-101,2132,113543,1
15.61879301071167,-524,-372,2582,113296,1
15.65864610671997,-832,-256,3113,113262,1
15.698690176010132,-822,351,2850,114011,1
15.738781929016113,92,3948,2759,114689,1
15.778669118881226,1547,6038,4032,114641,1
15.818662881851196,1233,2703,3105,114439,1
15.858758211135864,323,-8384,222,114205,1
15.897665739059448,-3811,-11380,475,113586,1
15.937696695327759,1515,-4854,-115,113993,1
15.977673292160034,817,2136,1406,114244,1
16.017680168151855,-2802,10440,5462,114205,1
16.05764889717102,1849,8791,7199,114083,1
16.097696781158447,2979,-5536,1968,114312,1
16.13771414756775,-6454,-17971,2828,114289,1
16.177677154541016,5802,-1707,-3113,114336,1
16.217702865600586,-2069,10966,4068,114100,1
16.257694005966187,129,13164,4537,114304,1
16.29766869544983,2451,-4244,1084,114388,1
16.33776354789734,-6520,-19569,9064,114350,1
16.37773561477661,6421,-3739,-4909,115641,1
16.416836738586426,-2143,9198,4650,115210,1
16.456717491149902,473,16144,5028,115683,1
16.496670961380005,3928,5026,-223,115965,1
16.536675930023193,-724,-22100,-1277,114986,1
16.57715606689453,1236,-8622,3722,116145,1
16.61668562889099,1864,1269,-1256,115967,1
16.656723976135254,-2790,15462,4409,116144,1
16.696712017059326,2934,12926,1299,116447,1
16.736834049224854,3806,1549,1444,116513,1
16.77727437019348,-4336,-23628,1240,115932,1
16.816741704940796,5513,-11381,-260,115810,1
16.857643127441406,1791,750,120,115383,1
16.896791696548462,-2561,13280,2862,115602,1
16.935712099075317,2388,13789,1824,115431,1
16.97566318511963,2368,7625,4730,116024,1
17.016223907470703,4571,-13024,-3922,116284,1
17.056110858917236,-7888,-13331,12662,113866,1
17.095784664154053,9017,-11349,-6987,114603,1
17.13579821586609,963,1327,1853,114493,1
17.175714015960693,-3367,16820,2870,113986,1
17.215692043304443,2523,12866,668,114243,1
17.25580859184265,3815,4346,6340,115127,1
17.296233654022217,-1234,-26598,-1896,114809,1
17.33617401123047,224,-10374,7524,114110,1
17.375733852386475,3198,-2997,-3904,114564,1
17.415701150894165,-1423,14989,4076,114654,1
17.454869508743286,6318,16727,-2995,114642,1
17.49470853805542,1457,6226,4009,115433,1
17.534716844558716,6016,-21770,-955,115944,1
17.57528781890869,-8733,-10190,17088,115673,1
17.614707708358765,7782,-8288,-6302,115771,1
17.655452489852905,306,7644,2856,116029,1
17.694709062576294,6168,20647,-4461,116238,1
17.734689712524414,730,10282,3177,116177,1
17.77541732788086,5861,-6328,-2257,116706,1
17.814927101135254,-10440,-18815,14680,115231,1
17.854729175567627,13962,-13512,-8523,115892,1
17.894737005233765,297,3956,2331,115662,1
17.934769868850708,-2068,20585,2099,115798,1
17.973689317703247,835,12100,-1406,115607,1
18.013729572296143,4368,2679,4147,116400,1
18.053781509399414,-527,-27453,-309,115262,1
18.093672037124634,-2309,-8800,11905,115283,1
18.133704662322998,5531,-7867,-7054,115339,1
18.17373299598694,2351,4784,2230,115342,1
18.213708877563477,-439,21023,-141,114526,1
18.253713130950928,4367,11509,-370,114746,1
18.29370951652527,2632,3874,1370,115461,1
18.33371639251709,3143,-25148,-4285,114704,1
18.373701810836792,-6663,-2326,17877,111541,1
18.413706302642822,7424,-13214,-8045,111717,1
18.453683853149414,1692,-448,2608,111453,1
18.493083953857422,-950,7752,820,110784,1
18.532759189605713,-1076,17081,-2847,110156,1
18.572694778442383,945,11520,4186,110410,1
18.612866640090942,5284,-1573,-3166,111590,1
18.652729511260986,-3530,-19439,4427,113538,1
18.693572998046875,1924,-9839,5929,112807,1
18.732789754867554,1643,-4460,-3665,112058,1
18.772746086120605,-1921,7470,5149,112688,1
18.81269073486328,3991,17447,-2077,113350,1
18.852911949157715,6181,10086,2755,113564,1
18.8936505317688,2075,-1806,-1105,114343,1
18.93272089958191,-2600,-23101,455,114061,1
18.97308087348938,-1610,-7570,8899,114104,1
19.011735200881958,4540,-7159,-4665,113428,1
19.05223536491394,-20,7106,4115,113263,1
19.091766595840454,1783,19703,-2209,112759,1
19.131722688674927,1936,10019,1447,113211,1
19.171678066253662,3162,799,1359,114651,1
19.211713790893555,-2164,-25661,1178,113969,1
19.2521870136261,-934,-9186,11394,114364,1
19.292571544647217,3191,-8108,-5182,114110,1
19.33189058303833,2433,5000,2401,114151,1
19.371730089187622,1774,21389,-5112,114267,1
19.411747694015503,2381,11166,1043,114212,1
19.451695203781128,5710,446,-356,115748,1
19.491746187210083,-5815,-31032,8617,114174,1
19.530718564987183,7296,-15976,-1722,114969,1
19.57073140144348,85,-729,-791,114440,1
19.610734224319458,-1136,13067,7610,114119,1
19.650779247283936,3457,17907,-3338,113761,1
19.690720319747925,-561,8231,2854,114499,1
19.731534481048584,6835,-17994,-3790,115770,1
19.77112627029419,-6840,-11524,21202,113772,1
19.810991764068604,9614,-14425,-9694,112825,1
19.851542234420776,-1115,2343,1285,112650,1
19.89073920249939,237,24273,1988,112886,1
19.931116580963135,6336,11709,-1637,112629,1
19.970704317092896,1891,4724,5386,113964,1
20.010751962661743,3340,-32695,-7067,115090,1
20.050541877746582,-5044,-5079,16042,114084,1
20.08971095085144,4964,-7678,-6447,113416,1
20.12984824180603,1017,4846,2676,113308,1
20.169712781906128,320,21472,-819,113268,1
20.209710121154785,4239,10514,-1150,113426,1
20.24980068206787,5041,1077,1411,115210,1
20.289700746536255,-550,-27133,-2275,114909,1
20.329694509506226,-3546,-5012,13701,115220,1
20.369708776474,4189,-8625,-7079,114629,1
20.409730434417725,1640,3230,1421,114285,1
20.44974660873413,1991,16485,484,113706,1
20.48978590965271,2497,10045,-768,113552,1
20.529695987701416,-113,5088,1395,114619,1
20.56884479522705,3776,-7673,-2465,115929,1
20.608806848526,-2303,-15586,4995,114821,1
20.648733139038086,-6241,-1660,9307,115880,1
20.68877911567688,4036,-8936,-1885,115055,1
20.72872519493103,1507,-4560,2818,114899,1
20.768702507019043,1804,1175,-55,114939,1
20.80869483947754,-2462,8741,357,114575,1
20.848732471466064,5797,12663,-3587,113978,1
20.888726234436035,-916,8220,1994,114097,1
20.928687810897827,2817,4826,751,114585,1
20.968809366226196,3223,-5862,-2755,115444,1
21.00874638557434,589,-17350,715,115141,1
21.04873251914978,-9046,231,11024,114796,1
21.087706327438354,1886,-9021,-184,114685,1
21.12772035598755,409,-7065,2238,114580,1
21.167778968811035,2861,-1973,-361,114532,1
21.20771288871765,997,3476,49,114506,1
21.247746229171753,2028,19304,-2885,114483,1
21.287832021713257,6835,9811,-1552,114589,1
21.327717065811157,97,6779,3480,115678,1
21.367742776870728,6706,-11914,-6769,116373,1
21.407798528671265,-2316,-17881,12999,112731,1
21.447739362716675,-677,-15130,1119,114744,1
21.487688779830933,1911,-6235,6,113896,1
21.527726650238037,3515,2470,1758,114087,1
21.567748069763184,-1751,14615,2066,113777,1
21.60772395133972,6698,14355,-3290,113807,1
21.64671492576599,877,6722,2349,114963,1
21.686750411987305,5087,-12118,-2966,116151,1
21.72727346420288,-3195,-13149,17183,116557,1
21.766746520996094,4687,-13422,-6392,116578,1
21.80676031112671,819,-1690,524,115842,1
21.846736907958984,357,7010,4844,116245,1
21.88676381111145,2277,15558,2496,116285,1
21.92734980583191,4548,11812,2245,116206,1
21.966734409332275,2935,3826,-1755,116759,1
22.006799459457397,1725,-12505,-55,117048,1
22.04675579071045,-3909,-13998,13776,113767,1
22.086873292922974,5396,-15067,-5357,114319,1
22.127264738082886,1805,-68,1083,114206,1
22.16571569442749,48,13311,9395,114543,1
22.205732822418213,8866,17543,-1353,114651,1
22.245711088180542,847,7448,1260,115193,1
22.28571915626526,3973,-6989,-1311,116366,1
22.325779676437378,-5854,-20528,9056,115069,1
22.365766286849976,6969,-14211,-1006,114568,1
22.406352996826172,210,-2182,-1199,114382,1
22.445751905441284,-502,10285,8526,114199,1
22.48573660850525,6873,18990,-995,113829,1
22.525739192962646,1027,8806,-839,113891,1
22.565725564956665,3716,116,436,115215,1
22.605741500854492,-3323,-29746,-139,114298,1
22.645732402801514,319,-8129,9968,112962,1
22.684829235076904,4223,-6348,-6292,112943,1
22.72473454475403,600,6254,5830,113177,1
22.765163898468018,855,20446,2047,113638,1
22.804851055145264,2158,11046,-3055,113450,1
22.8447687625885,3628,4667,1356,114463,1
22.884748220443726,1879,-29826,-3260,115613,1
22.924833059310913,-3316,-5437,19371,113873,1
22.964762926101685,5618,-9742,-7708,113360,1
23.004770278930664,970,2386,1137,113393,1
23.044782638549805,-2531,15807,7343,113241,1
23.084771394729614,8682,12176,-2736,113043,1
23.12472653388977,1254,7389,1443,113590,1
23.16474413871765,4809,-3749,26,114854,1
23.204372882843018,-8147,-24396,6359,114430,1
23.244091510772705,4436,-11198,5189,114350,1
23.28413724899292,237,-4475,-3238,114104,1
23.32375407218933,1104,7625,4719,114355,1
23.36376714706421,8627,19424,-2357,114256,1
23.403738021850586,2284,9284,1195,114334,1
23.44396448135376,3471,-371,631,115891,1
23.4838604927063,-5089,-26100,2283,115342,1
23.523751974105835,2321,-10174,7975,114791,1
23.563811540603638,1734,-5177,-3517,114398,1
23.603895664215088,2438,5073,2617,114336,1
23.644104957580566,692,18453,2986,114551,1
23.683757543563843,4699,10627,-3074,114573,1
23.724137544631958,2419,6094,379,115884,1
23.76278042793274,3948,-10972,-1848,117355,1
23.80296039581299,-7433,-16567,15987,116935,1
23.842849731445312,5096,-11721,-5113,116590,1
23.88275146484375,702,-2039,1192,116143,1
23.922731399536133,1827,8771,2294,116318,1
23.962769269943237,10799,16936,-2367,116124,1
24.00277328491211,1959,9344,3228,116142,1
24.042747735977173,3723,-925,-221,117023,1
24.082771062850952,-4259,-26511,117,117085,1
24.122755527496338,-349,-8711,8639,115677,1
24.16292095184326,2654,-6233,-3000,115268,1
24.20303225517273,2041,3604,1967,115147,1
24.24276351928711,-1643,15956,4139,115445,1
24.28308129310608,9309,12032,-954,115369,1
24.3221538066864,751,7015,-793,115665,1
24.36175560951233,5559,-2983,-1921,116572,1
24.402051210403442,-5423,-25117,6594,116250,1
24.441792964935303,1925,-10002,5251,115464,1
24.481769561767578,592,-5522,-1675,115209,1
24.52186679840088,2034,3812,2088,115128,1
24.561737537384033,1339,18890,1752,115274,1
24.60176396369934,7615,11480,-348,115174,1
24.64181399345398,1359,4489,2825,116324,1
24.681787967681885,4518,-22920,-2039,116968,1
24.72178339958191,-7748,-6949,17750,115732,1
24.76179838180542,6924,-10311,-6696,115507,1
24.801766395568848,-167,1469,2452,115344,1
24.840773344039917,1554,11717,6461,115493,1
24.880877256393433,8791,15282,-800,115534,1
24.92075276374817,1628,7753,840,115862,1
24.960822343826294,3605,-3901,-1497,117308,1
25.00079846382141,-9427,-23665,8744,117002,1
25.04080557823181,6052,-11192,1512,116245,1
25.08077836036682,-404,-2460,-1534,116018,1
25.1207914352417,1865,8564,6887,116096,1
25.160804271697998,10579,16712,-195,116128,1
25.200745820999146,3119,8823,808,116058,1
25.240954637527466,2232,-1407,-1620,117149,1
25.280778646469116,-2995,-27353,564,117524,1
25.320762157440186,2420,-8471,6157,116255,1
25.360811233520508,696,-3116,-1431,115912,1
25.399775743484497,-1450,7629,6898,115848,1
25.43985891342163,3414,17687,3843,115922,1
25.479751586914062,6335,9412,1829,116038,1
25.52051544189453,3575,-1423,-891,116658,1
25.55980634689331,-2928,-25076,-863,116767,1
25.59978413581848,-1469,-7431,8182,115055,1
25.63977313041687,4412,-4767,-2195,114934,1
25.67975115776062,-379,4840,3694,114924,1
25.71979856491089,3787,17312,5238,114861,1
25.759777784347534,9005,10846,4009,114822,1
25.799949407577515,1214,477,-2812,115501,1
25.839816093444824,1303,-27880,-3547,114113,1
25.879777193069458,-4245,-4660,16496,110649,1
25.918867588043213,5873,-7352,-5561,110380,1
25.95875883102417,-761,4247,2794,110400,1
25.99877691268921,1377,18953,1735,110581,1
26.038771867752075,8811,9981,-2963,110788,1
26.07911205291748,675,4748,3567,111459,1
26.118772983551025,3954,-29893,-2087,112982,1
26.159388542175293,-7002,-4428,17780,111215,1
26.198786735534668,6845,-7764,-4613,110461,1
26.239047288894653,-811,2833,630,110424,1
26.278775453567505,1385,17117,4442,110462,1
26.318767547607422,9456,11197,113,110396,1
26.358755826950073,-228,3988,-41,110844,1
26.39880061149597,4019,-21306,-3710,111993,1
26.438802480697632,-7129,-6058,19206,108551,1
26.477815628051758,8038,-10043,-4928,107985,1
26.518017768859863,-1942,1483,1054,107991,1
26.55780339241028,-1156,10393,6554,108150,1
26.598376035690308,7152,15118,-713,108515,1
26.637799501419067,2744,7363,-896,108790,1
26.677782773971558,3069,-228,-137,109585,1
26.71830701828003,-3889,-29821,1972,110020,1
26.758193969726562,518,-8666,12393,106135,1
26.798368215560913,3265,-4604,-5703,105924,1
26.838078260421753,-105,12248,3466,106352,1
26.877798080444336,10932,16520,-1061,106437,1
26.918073654174805,751,5292,2914,106689,1
26.9577898979187,4767,-19095,1806,108169,1
26.996822595596313,-10069,-8421,15926,107601,1
27.037301301956177,7710,-9029,-4450,108031,1
27.077154874801636,354,1952,1078,108386,1
27.116799354553223,516,14347,5137,108995,1
27.157537937164307,8156,12436,1688,109266,1
27.196775674819946,2111,5446,774,109685,1
27.236785650253296,1693,-8023,-1732,110030,1
27.276971101760864,-6847,-16320,13154,109781,1
27.316805839538574,6168,-8366,-3288,109201,1
27.356769323349,-235,1343,706,108937,1
27.396796464920044,-857,11316,5012,109079,1
27.436814308166504,7585,13027,1698,109205,1
27.476892232894897,4601,6650,983,109287,1
27.51681637763977,1834,-4115,-1955,109931,1
27.5558500289917,-6432,-24735,3117,110078,1
27.59579825401306,1747,-10084,6510,108902,1
27.636574506759644,3009,-5256,-1952,109085,1
27.676193714141846,2808,4172,3929,108828,1
27.71650266647339,3006,18520,3924,109220,1
27.75580096244812,7777,9670,-258,109077,1
27.79579186439514,1195,5398,2130,109348,1
27.837026596069336,7206,-12638,-455,110861,1
27.87614369392395,-14242,-13306,19438,110130,1
27.916046142578125,9008,-12683,-6131,109651,1
27.95576763153076,174,-1624,-38,109377,1
27.99582028388977,2818,10439,5814,109542,1
28.036353588104248,15331,13358,-5580,109657,1
28.076732873916626,-1686,8706,2186,109662,1
28.114854335784912,6083,-217,-2982,110405,1
28.154802799224854,-3861,-25858,1025,111218,1
28.194804906845093,3213,-7965,10356,109751,1
28.23499822616577,-184,-4094,-2663,109670,1
28.274782180786133,882,4495,2311,109578,1
28.314792156219482,30,16523,2491,109586,1
28.354857444763184,7064,10542,1130,109316,1
28.39478087425232,1679,4695,2031,109328,1
28.43481206893921,3493,-12380,-2243,110301,1
28.475526332855225,-8484,-13630,15011,109878,1
28.51478672027588,5880,-8914,-94,108691,1
28.554826974868774,-771,-1478,-646,108686,1
28.59495186805725,12,6127,3534,108764,1
28.633800268173218,5553,13932,769,108914,1
28.6738440990448,6958,9370,-359,108915,1
28.713792324066162,3393,3328,-314,109399,1
28.753800630569458,2706,-21734,-174,110663,1
28.79426097869873,-8151,-7836,17577,109186,1
28.83385705947876,4577,-9523,-4910,109380,1
28.873825550079346,834,986,1860,109149,1
28.913896083831787,1202,12360,6427,109393,1
28.95388627052307,9653,13971,-1412,109447,1
28.993781805038452,1144,6594,672,109452,1
29.033855438232422,3933,-3662,-522,110159,1
29.073848962783813,-6511,-23736,4156,110553,1
29.113819360733032,1107,-7734,6570,109403,1
29.154324054718018,1456,-4333,-1991,109412,1
29.1928448677063,1243,3632,2049,109251,1
29.23368525505066,662,10704,5798,109325,1
29.27294373512268,4790,12063,4221,109434,1
29.312800884246826,3729,7515,478,109908,1
29.35284423828125,3270,-611,-4931,110705,1
29.392916679382324,-2051,-22701,1907,111482,1
29.432827949523926,-3790,-4968,14209,110263,1
29.47280979156494,1972,-6742,-2375,110078,1
29.5129873752594,1268,2632,2095,109985,1
29.552823305130005,3560,14394,2748,109910,1
29.592867136001587,9334,12734,1731,109709,1
29.632805585861206,1251,4080,266,109938,1
29.67282509803772,2177,-16573,-1966,110715,1
29.71315360069275,-9632,-11462,14886,110344,1
29.752236127853394,4738,-7522,-1160,109743,1
29.792184352874756,-218,-18,1394,109682,1
29.831807613372803,931,7148,4800,109667,1
29.87186598777771,7696,13587,3108,109834,1
29.911766052246094,5801,8889,1019,109841,1
29.951810121536255,2962,3262,-2831,109869,1
29.991929292678833,3748,-13949,-980,110780,1
30.03205180168152,-11629,-13301,16220,108618,1
30.071821212768555,5751,-10085,-2210,108533,1
30.11177945137024,-339,-1655,144,108515,1
30.151813507080078,2103,6358,3496,108596,1
30.191834449768066,10036,14411,2301,108734,1
30.23190474510193,5559,9372,3272,108834,1
30.27098798751831,3049,1817,-1784,108929,1
30.310800313949585,69,-21082,1201,109846,1
30.350834608078003,-7580,-7778,15719,108737,1
30.390817403793335,2782,-7152,-3174,108782,1
30.430794715881348,537,341,1568,108761,1
30.47081995010376,1349,8475,4555,108715,1
30.510819673538208,8288,12935,6176,108725,1
30.550886869430542,3619,8154,3213,108986,1
30.590805292129517,2875,1694,-5715,109343,1
30.63084363937378,-404,-14891,454,110093,1
30.67094588279724,-9447,-10965,17055,108988,1
30.7108154296875,2895,-9201,-1853,108846,1
30.751527309417725,1079,-1071,2628,108893,1
30.78990888595581,5043,10014,4092,109136,1
30.829825162887573,16635,14379,-1675,109028,1
30.869853258132935,1026,6157,-300,109200,1
30.909852504730225,4219,-2640,-683,109433,1
30.94984531402588,-9980,-27244,8340,110194,1
30.98982334136963,6511,-10368,4127,108937,1
31.02981662750244,88,-2318,-1287,108978,1
31.069809675216675,-153,8229,3346,108684,1
31.10982918739319,3045,16677,5655,108958,1
31.14987349510193,6217,8778,51,108997,1
31.189872980117798,3767,2966,-2605,109079,1
31.22985291481018,-307,-22584,-1078,110194,1
31.26983666419983,-5099,-8443,16197,109054,1
31.309875965118408,2131,-4730,-764,109000,1
31.348884344100952,800,2187,2757,109031,1
31.388829946517944,2070,13542,4626,109055,1
31.428882360458374,9242,12813,-1373,108898,1
31.468849420547485,1118,5720,-667,108915,1
31.508865118026733,6941,-7324,-156,110091,1
31.54887628555298,-15577,-19208,16555,110266,1
31.588866472244263,8360,-9103,36,108971,1
31.62880802154541,1369,-100,468,108971,1
31.66946005821228,-103,10092,5672,109060,1
31.708826303482056,7132,15139,-1543,109033,1
31.748831748962402,2325,7966,-1827,108895,1
31.788808822631836,4216,912,-55,109366,1
31.828857898712158,-7132,-24106,4343,110578,1
31.869232177734375,4439,-8864,5053,109194,1
31.90785574913025,104,-2379,-337,109138,1
31.94784140586853,-1262,6892,2277,109164,1
31.98782205581665,3750,15325,2190,109136,1
32.0278594493866,5886,10193,-1556,109127,1
32.067854166030884,3010,3049,-4054,109154,1
32.107842683792114,2569,-14244,-860,109925,1
32.147884130477905,-10331,-9713,19049,109379,1
32.1879518032074,5154,-8835,-2920,108999,1
32.22784614562988,2649,441,3074,109029,1
32.26788878440857,399,10306,2322,108986,1
32.30792689323425,9412,15051,-1623,108593,1
32.34780263900757,2483,7367,3154,108388,1
32.38781023025513,4802,-563,966,108585,1
32.42688179016113,-1999,-27495,-1969,109802,1
32.466867446899414,-6476,-6500,17329,107866,1
32.50723719596863,2591,-7765,-4577,107793,1
32.547147274017334,1543,2618,2145,107525,1
32.58753514289856,1966,15739,5405,107836,1
32.6268789768219,10053,13190,2430,107837,1
32.666868925094604,1751,6207,2910,108094,1
32.70689940452576,5954,-9617,-4816,108858,1
32.74686884880066,-14538,-20101,14269,108844,1
32.78688359260559,7540,-10867,-3342,107734,1
32.82685828208923,881,-693,2059,107363,1
32.866947889328,-1154,7712,5069,107281,1
32.90686106681824,2248,16076,-650,107539,1
32.94682765007019,5014,10147,-953,107528,1
32.985875606536865,3049,4106,-1623,107906,1
33.02583980560303,6443,-18273,-4587,108683,1
33.065873861312866,-10123,-8330,24514,105667,1
33.105942487716675,7867,-13738,-6429,104889,1
33.14585065841675,1093,-1926,1871,105163,1
33.1858856678009,-70,11249,3371,105245,1
33.2258574962616,11274,16203,-3108,105239,1
33.26584267616272,2425,8058,6710,105126,1
33.30584144592285,5859,-3879,-517,105955,1
33.345853328704834,-9991,-27100,5647,106247,1
33.385862827301025,6915,-10548,5396,103448,1
33.42585587501526,1093,-2454,833,104098,1
33.46585392951965,-26,5879,2719,104502,1
33.5048451423645,-976,16248,1076,104763,1
33.54486346244812,7775,10015,11,104608,1
33.584914445877075,2625,4732,2221,104919,1
33.625523805618286,7203,-15811,-5262,106652,1
33.664978981018066,-14704,-10777,19498,105287,1
33.70485782623291,9089,-14566,-2243,103290,1
33.74483108520508,-1123,-1276,678,103178,1
33.78485584259033,1547,9441,7597,103415,1
33.824896812438965,13766,15359,-4695,104009,1
33.864853382110596,2563,6922,-1547,103840,1
33.90486168861389,5253,733,-685,104456,1
33.94502353668213,171,-29061,-1119,105782,1
33.98487615585327,-8119,-4739,21135,102744,1
34.02388119697571,3143,-9181,-4513,101705,1
34.06383419036865,797,-799,891,101773,1
34.10385084152222,1365,9592,3154,102417,1
34.143839836120605,15761,12949,-5154,102695,1
34.1838595867157,1270,9369,7337,102543,1
34.22385382652283,4584,-103,-3215,103453,1
34.263896465301514,-1747,-29129,2858,104520,1
34.30473780632019,-3746,-7594,14355,102781,1
34.34424376487732,1240,-5199,-2513,102703,1
34.38395571708679,2591,2821,4114,102629,1
34.42386198043823,4427,14865,1646,103001,1
34.46386671066284,11074,10679,692,102895,1
34.50388765335083,1700,4006,-127,103337,1
34.54287099838257,5305,-17074,-5959,104351,1
34.58314609527588,-12368,-9943,21330,103032,1
34.62322688102722,9058,-12735,-4397,103136,1
34.6628258228302,380,-2550,1446,103290,1
34.702898025512695,2769,4951,2140,104168,1
34.74307417869568,4219,15018,-1581,105301,1
34.78286814689636,8016,10936,2771,105598,1
34.822892904281616,1932,3730,-1378,106569,1
34.8628511428833,3493,-10651,-474,106802,1
34.90285015106201,-12985,-15184,16004,106679,1
34.9433491230011,5743,-6926,-918,105885,1
34.98291301727295,2776,4430,1958,106038,1
35.022881746292114,12449,16864,-3457,105851,1
35.06282091140747,1215,4588,796,105925,1
35.10185766220093,3328,-8060,134,106190,1
35.14270520210266,-8510,-15175,8545,106004,1
35.18188691139221,6676,-10963,1672,105281,1
35.221893072128296,880,-2158,695,105200,1
35.26184558868408,703,4716,2071,104922,1
35.30222487449646,396,11117,8260,105067,1
35.341864585876465,8287,10863,3524,105553,1
35.381866693496704,2018,5824,-4090,106133,1
35.42189598083496,4995,-4944,-10127,106360,1
35.46190547943115,-4839,-23040,8722,105959,1
35.50251030921936,780,-8728,8478,105435,1
35.54186272621155,-394,-3803,-575,105441,1
35.58185601234436,3502,5731,293,105643,1
35.62187933921814,13237,15278,-4145,105625,1
35.661048412323,2536,8626,12128,105307,1
35.701578855514526,3565,-1909,189,106276,1
35.740885734558105,-4826,-26296,1105,106454,1
35.78091287612915,-361,-8992,11564,105268,1
35.820878982543945,3715,-6669,-2672,105688,1
35.86086082458496,2818,2249,534,105641,1
35.90089416503906,-703,11514,4231,106033,1
35.94085240364075,7126,12921,2688,106079,1
35.98089337348938,978,7654,-67,106369,1
36.02093863487244,2669,2678,-3206,106586,1
36.06101679801941,2958,-24057,-4099,107569,1
36.10101079940796,-6931,-7395,16788,106747,1
36.140929222106934,3530,-6211,-1443,106550,1
36.180866718292236,1740,754,2877,106281,1
36.21993446350098,4994,12530,4323,106219,1
36.25985765457153,6088,11239,6428,106133,1
36.30049657821655,39,3508,3454,106606,1
36.33984184265137,4242,-9401,-2411,107355,1
36.37987232208252,-14015,-13673,10763,106832,1
36.41986560821533,8362,-10802,-1356,106410,1
36.459922313690186,858,-1775,2230,106164,1
36.49987292289734,1877,7095,3914,106580,1
36.539878606796265,2583,17698,-1894,106724,1
36.579983949661255,1806,8934,5589,106572,1
36.61987495422363,2554,4511,151,107084,1
36.659913778305054,4079,-4867,-4693,107686,1
36.7000572681427,-11437,-24063,8369,108047,1
36.73985481262207,7106,-9288,-350,107208,1
36.78048658370972,1268,-2263,1640,106910,1
36.81893467903137,666,5827,2987,106818,1
36.85892128944397,3526,11990,3397,106511,1
36.899272203445435,1827,9721,6100,106470,1
36.938889026641846,3344,2886,-524,106991,1
36.978896617889404,2748,-18733,-4251,107661,1
37.01929521560669,-9796,-9048,15917,105849,1
37.05894947052002,4702,-7273,-1918,105928,1
37.09886956214905,1106,1464,2516,105678,1
37.13891243934631,246,10645,4580,105737,1
37.17890286445618,9006,14068,2401,105751,1
37.21888756752014,2787,7386,3518,105963,1
37.258941411972046,7428,-2835,-3734,106933,1
37.298917293548584,-12933,-26268,8804,105936,1
37.33888220787048,8492,-9867,884,105408,1
37.37808871269226,1347,-1548,1006,105211,1
37.41787385940552,858,6310,4353,105205,1
37.457874059677124,-28,13387,2396,105316,1
37.49789476394653,2584,9475,2876,105111,1
37.53792881965637,2387,2891,461,105577,1
37.57791042327881,3537,-20228,-4839,106581,1
37.618024826049805,-7667,-9076,16196,103641,1
37.657859563827515,4344,-5862,-664,104173,1
37.69787859916687,365,1630,2020,104312,1
37.73804068565369,-554,9631,6097,104236,1
37.77805972099304,4572,11747,4982,104427,1
37.81791019439697,4217,7192,92,104732,1
37.85800218582153,6101,578,-3923,105288,1
37.897908210754395,-116,-24299,-387,105304,1
37.937312841415405,-3579,-6717,13470,103638,1
37.97748827934265,427,-4069,-1507,104087,1
38.017261028289795,1381,2324,2921,104260,1
38.056878089904785,591,9495,2490,104357,1
38.09717798233032,6447,12499,2452,104024,1
38.136879682540894,2926,6720,4632,104133,1
38.176941871643066,5026,-3380,-1818,104637,1
38.21691346168518,-13779,-23757,5907,104236,1
38.256882667541504,8543,-8672,2713,103459,1
38.296874046325684,1294,-913,1224,103721,1
38.33698225021362,-385,5914,4532,103709,1
38.378222942352295,531,10181,6904,103755,1
38.41762900352478,1950,9058,7299,103969,1
38.45589232444763,3014,3810,-3432,104566,1
38.49589776992798,5823,-9764,-8562,105166,1
38.53602647781372,-10696,-18057,13776,102511,1
38.576149702072144,4496,-6844,2204,102927,1
38.615882396698,256,61,2823,103554,1
38.65587067604065,363,7641,3339,103635,1
38.69586992263794,2321,13555,2401,103609,1
38.73587656021118,2965,7442,786,103576,1
38.77601647377014,2635,1744,483,103770,1
38.81590986251831,737,-22944,1169,104612,1
38.85597562789917,-5945,-6913,10004,102132,1
38.89590573310852,3753,-4051,-1508,102862,1
38.93589496612549,1380,1768,1247,103158,1
38.97590780258179,-1324,7418,3501,103215,1
39.014925479888916,2208,10235,6780,103390,1
39.05529499053955,3903,6606,4920,103482,1
39.09487986564636,203,4496,369,103949,1
39.134992599487305,2329,-2874,-6732,104240,1
39.17493796348572,-2164,-18605,2844,103697,1
39.21492052078247,-1798,-5493,11333,101155,1
39.25502586364746,2398,-5875,-2709,102074,1
39.294904947280884,1422,1218,1716,102357,1
39.335285902023315,166,5981,627,102472,1
39.375048875808716,-3232,10462,3470,102459,1
39.41490197181702,3186,7099,7984,102454,1
39.454920530319214,1823,4230,3228,102479,1
39.494930028915405,1328,1612,-1994,102959,1
39.534910917282104,1960,-4061,-1769,103592,1
39.574039936065674,-2863,-16189,4810,101977,1
39.613911151885986,-5200,-5509,8789,100863,1
39.653942346572876,3054,-6669,-1222,101721,1
39.69450259208679,2081,-640,794,101980,1
39.733914852142334,1663,5314,452,102294,1
39.7748076915741,2060,10445,3000,102478,1
39.81391716003418,5152,8035,11205,102446,1
39.85386919975281,931,3435,4244,102326,1
39.894094467163086,1426,1260,-572,102859,1
39.933993339538574,1166,-9171,-1391,103800,1
39.974008560180664,-9600,-12137,9545,101409,1
40.01391053199768,3738,-9274,777,101313,1
40.05412554740906,1466,-3190,-182,101770,1
40.0941686630249,2240,2442,1521,101920,1
40.132911920547485,-971,7942,3809,102203,1
40.17296099662781,918,8942,3771,102344,1
40.21288251876831,3862,5756,6780,102276,1
40.25334644317627,-308,3864,3374,102437,1
40.29298186302185,589,1525,-3110,102742,1
40.332918643951416,1430,-3922,-3089,103192,1
40.37295079231262,-2200,-14958,4060,103323,1
40.41306519508362,-4210,-3296,11458,101176,1
40.45291352272034,3513,-6952,-1631,101072,1
40.492982149124146,728,-1623,133,101301,1
40.53300213813782,1063,4125,1463,101526,1
40.57291269302368,1320,7479,2208,101686,1
40.612908124923706,1914,8426,7952,102021,1
40.651904582977295,-534,5205,8179,101981,1
40.69196581840515,-2773,2577,522,102537,1
40.732011556625366,124,1635,-2642,102733,1
40.77191758155823,2188,-2376,-1516,103104,1
40.811920166015625,692,-14477,477,102360,1
40.85236358642578,-8982,-2534,10658,99628,1
40.892470598220825,5465,-7079,956,99808,1
40.93192720413208,623,-1707,1629,100120,1
40.971944093704224,1423,3259,1426,100482,1
41.01209211349487,898,7245,1954,100668,1
41.051913261413574,100,8579,5843,100934,1
41.091925382614136,3149,6086,7914,100824,1
41.13191890716553,-717,2802,1051,101269,1
41.17192482948303,528,1260,-3087,101660,1
41.2112820148468,2227,-3931,-1755,102028,1
41.25096249580383,-2982,-13438,4013,100852,1
41.290961503982544,-4786,-4414,10144,99090,1
41.3309645652771,1541,-6687,-1631,100228,1
41.3709282875061,1696,-1771,1256,100531,1
41.41099262237549,2076,3716,1181,100913,1
41.45101547241211,882,8082,2576,101109,1
41.490907430648804,3847,8907,6221,100981,1
41.53090190887451,0,4638,6815,100939,1
41.57092642784119,-1160,3714,2929,101334,1
41.61088848114014,1511,1878,-630,101858,1
41.65093779563904,1114,-7049,-2324,102396,1
41.69099688529968,-5887,-13551,5066,99868,1
41.72991943359375,640,-6560,7235,97896,1
41.76992225646973,1542,-4927,-960,99150,1
41.80993175506592,1649,838,2209,99767,1
41.84992265701294,318,5738,1492,100220,1
41.889994382858276,-438,10694,3446,100384,1
41.92992925643921,4685,6836,6989,100309,1
41.96993327140808,-230,3785,3826,100734,1
42.00998902320862,-88,1657,-2512,101397,1
42.05058479309082,1562,-1988,-3596,101579,1
42.089921712875366,-228,-11453,985,101638,1
42.12996959686279,-6172,-6654,12294,99588,1
42.16993021965027,2796,-6173,216,100825,1
42.20992469787598,200,-2185,19,101336,1
42.24901270866394,1376,2090,1337,101799,1
42.28893256187439,1549,5342,1741,102014,1
42.32890272140503,2360,8305,8756,102068,1
42.369054555892944,2241,5804,7078,102180,1
42.40891361236572,48,3436,123,102865,1
42.44893956184387,468,2057,-2004,103009,1
42.48905158042908,1191,-3014,-639,103275,1
42.52895164489746,-1456,-14239,2227,103525,1
42.56902098655701,-5812,-4668,10212,103253,1
42.60896563529968,2355,-6834,-225,103382,1
42.64896082878113,2305,-1483,200,103189,1
42.68889904022217,776,4420,709,103287,1
42.72891449928284,1592,9301,365,103374,1
42.7686071395874,7218,8693,4301,103107,1
42.80794906616211,439,4739,4466,103309,1
42.84797120094299,2920,2493,215,103660,1
42.888017416000366,2221,-1365,-185,103700,1
42.9279510974884,165,-12020,1039,104039,1
42.96797490119934,-11084,-6489,11425,102226,1
43.00794768333435,3763,-8626,697,102660,1
43.04793643951416,1447,-3794,-18,102856,1
43.08793234825134,2070,653,761,102944,1
43.12804079055786,84,5387,1874,102923,1
43.16821551322937,1375,9339,5321,102674,1
43.20798110961914,4913,8540,7194,102744,1
43.24793100357056,930,5451,-835,103254,1
43.28798699378967,2212,1441,-5804,103396,1
43.32692503929138,1612,-7330,525,103766,1
43.36694312095642,-6935,-14788,8151,101706,1
43.406991720199585,798,-9329,2667,102160,1
43.446941614151,1220,-4897,-829,102477,1
43.48692607879639,3954,1624,1759,102531,1
43.52696371078491,293,8164,4207,102578,1
43.566967248916626,953,12032,6346,102491,1
43.60693717002869,405,6414,4258,102672,1
43.646915674209595,463,4287,-795,102908,1
43.68696999549866,1694,1697,-2722,102927,1
43.72691607475281,2031,-4621,691,103190,1
43.766966342926025,-2396,-14762,2673,100851,1
43.806950092315674,-6020,-3045,10346,98033,1
43.84692692756653,4204,-6307,-1400,99362,1
43.886027097702026,1581,-1371,724,99683,1
43.92697286605835,1452,3840,1030,100182,1
43.9661431312561,-1366,7250,1874,100588,1
44.00641465187073,-1095,10199,5014,100462,1
44.04595375061035,2368,6501,6479,100599,1
44.0859694480896,-9,3711,891,101333,1
44.12639355659485,-650,1513,-4374,101630,1
44.16596484184265,2933,-5187,-547,102225,1
44.20629811286926,-1750,-15306,6405,100822,1
44.24596118927002,-4659,-6814,6861,100551,1
44.2859673500061,2385,-5027,412,101044,1
44.32599639892578,2365,-667,1990,101203,1
44.36593961715698,1134,5004,821,101453,1
44.40494251251221,-214,10850,2129,101628,1
44.44509506225586,6219,8826,4131,101335,1
44.48494553565979,-528,6040,4906,101562,1
44.52497434616089,927,3209,-1239,102130,1
44.56499361991882,1633,-2645,-2434,102533,1
44.604947090148926,-599,-16178,2511,101893,1
44.64495897293091,-5092,-4360,11031,99824,1
44.68504309654236,2996,-6276,-1117,100953,1
44.72493028640747,39,-1443,1531,101247,1
44.76494216918945,379,3635,289,101525,1
44.8050811290741,363,8510,2353,101569,1
44.84495782852173,3041,10071,6118,101452,1
44.88528299331665,988,5897,3149,101774,1
44.92503762245178,-117,3850,-2783,102008,1
44.96395921707153,2757,1257,-3368,102002,1
45.00398015975952,3863,-6031,1024,102253,1
45.04419207572937,-4140,-15144,5358,99962,1
45.08396530151367,-3609,-6710,9229,98187,1
45.12396812438965,1854,-6559,-1691,99535,1
45.16394066810608,2963,-454,575,99765,1
45.20395255088806,696,6237,1450,100034,1
45.2443413734436,970,12910,853,100503,1
45.28396534919739,3080,9655,3980,100400,1
45.32394742965698,643,5531,2054,100783,1
45.36395239830017,2078,944,-3549,101422,1
45.404258728027344,1555,-7085,-230,101681,1
45.44464468955994,-9208,-12610,9851,98735,1
45.48435425758362,2707,-9557,2082,99379,1
45.522923707962036,1040,-4052,-665,99823,1
45.562952280044556,3158,2023,1387,100054,1
45.60316848754883,575,6568,1818,100528,1
45.642943382263184,-877,11766,2233,100620,1
45.68320059776306,3392,7671,7031,100515,1
45.72294759750366,-1645,4079,2858,101064,1
45.763020753860474,-5,2120,-4298,101289,1
45.80296778678894,2383,-1586,-1169,101294,1
45.84303689002991,2448,-12370,1736,101590,1
45.88296580314636,-9758,-4332,13094,98838,1
45.92358326911926,5209,-9562,2430,99409,1
45.963130712509155,853,-4425,713,99812,1
46.00296354293823,2253,1069,1712,100286,1
46.043081283569336,606,5331,-970,100795,1
46.08206510543823,-834,13602,-1044,101054,1
46.12204599380493,6391,7183,5021,100769,1
46.16201424598694,-1062,5020,4481,100974,1
46.201966285705566,305,3230,-2284,101461,1
46.24195885658264,2227,-1211,-768,102199,1
46.28197145462036,2536,-13179,2702,102638,1
46.32201051712036,-9683,-4876,11084,100934,1
46.36199975013733,2884,-7691,2909,101162,1
46.40196228027344,1456,-4345,-60,101551,1
46.442038774490356,1670,398,792,101885,1
46.48194074630737,214,4609,53,102173,1
46.52198815345764,-883,9059,933,102273,1
46.5619797706604,2906,8693,2460,102218,1
46.600966691970825,1629,6064,1985,102294,1
46.64102125167847,1186,4425,-547,102609,1
46.68097400665283,3095,-630,-2411,102767,1
46.72098231315613,1905,-9306,2532,103314,1
46.760963439941406,-9595,-7222,11672,102021,1
46.80102729797363,1737,-10210,1267,102364,1
46.84096026420593,743,-4895,936,102492,1
46.880964040756226,2518,81,1194,102548,1
46.92096447944641,952,4774,205,102454,1
46.960938930511475,933,9839,4281,102377,1
47.00137639045715,8010,8599,2406,102442,1
47.04100298881531,-448,4479,-918,102495,1
47.08103799819946,2196,2975,-2019,102550,1
47.1211519241333,2483,-1294,-56,102577,1
47.15998888015747,3245,-11789,2836,102711,1
47.20041847229004,-9622,-5830,11023,100220,1
47.23999524116516,4713,-8427,3659,100214,1
47.27998065948486,886,-4119,-708,100864,1
47.32040524482727,1557,295,206,101149,1
47.36000370979309,356,4186,229,101530,1
47.400686264038086,-2481,8946,299,101727,1
47.43998861312866,1379,8711,5343,101543,1
47.47999286651611,2007,5717,6652,101505,1
47.519975423812866,-242,3530,271,102051,1
47.55997371673584,1699,-1171,-3839,102291,1
47.60009241104126,-471,-12426,1095,101900,1
47.63998103141785,-5723,-7844,12657,98381,1
47.67997407913208,3261,-6221,990,99255,1
47.71895742416382,969,-1258,1090,99920,1
47.75896906852722,1472,3702,-197,100518,1
47.79906225204468,-258,8770,-1418,100955,1
47.83949327468872,6001,10244,-1612,100943,1
47.87899303436279,2590,6411,1933,100767,1
47.91906142234802,2981,2233,1217,101077,1
47.95930290222168,1476,-6540,760,101610,1
47.99903964996338,-9765,-15072,9284,98954,1
48.03898310661316,2500,-8877,2904,98232,1
48.0789680480957,1227,-3423,-499,99041,1
48.118961811065674,2142,3327,742,99715,1
48.15907597541809,244,10838,-34,100560,1
48.19898462295532,4132,8452,2194,100472,1
48.23815560340881,-3744,3844,6402,100491,1
48.27796196937561,-4856,1559,1882,100880,1
48.31797981262207,1467,3445,-2097,101231,1
48.35797929763794,4013,-479,-5036,101405,1
48.39806246757507,2102,-8575,1130,101337,1
48.43804049491882,-5501,-8788,10442,98459,1
48.47799468040466,81,-6797,3579,98751,1
48.51802587509155,284,-3934,859,99409,1
48.55801439285278,2230,998,171,99926,1
48.59799551963806,-84,5061,-1579,100314,1
48.63852643966675,1795,11417,125,100514,1
48.677969455718994,4216,8005,3160,100321,1
48.71797800064087,1398,5227,3395,100540,1
48.758012533187866,2299,1710,-1069,101189,1
48.79700779914856,1312,-6354,-1313,101724,1
48.83719062805176,-10929,-13230,12109,98561,1
48.87697243690491,2296,-7996,547,98481,1
48.916975259780884,1500,-2267,611,98958,1
48.95695781707764,2178,2017,612,99587,1
48.99698543548584,410,4861,-351,100130,1
49.0369758605957,443,8265,1942,100278,1
49.07805061340332,1575,7959,3995,100230,1
49.11728835105896,433,4859,801,100537,1
49.15700125694275,-143,2724,-849,100604,1
49.19695782661438,1096,1107,601,100668,1
49.23698687553406,1886,-6219,1248,101044,1
49.277525424957275,-6891,-11101,5789,97855,1
49.31627297401428,3145,-4708,4177,97168,1
49.35604977607727,-381,-1511,544,98340,1
49.39598345756531,656,2513,1587,99258,1
49.436495304107666,-1267,5542,-284,99937,1
49.47650361061096,-210,9023,-444,100292,1
49.516011238098145,3342,7849,2113,100274,1
49.55622220039368,1605,5800,2245,100607,1
49.59598660469055,2444,2132,-314,100994,1
49.636024475097656,2618,-5455,-1666,101708,1
49.67605972290039,-8566,-13999,8576,98933,1
49.71598815917969,503,-6622,8998,96448,1
49.75644779205322,1075,-4526,-2233,97799,1
49.79597496986389,526,140,495,98458,1
49.83601951599121,166,4228,-396,99216,1
49.875083684921265,816,7698,381,99786,1
49.91499900817871,6787,8938,2748,100083,1
49.95499300956726,1229,5520,520,100750,1
49.995015382766724,2357,3007,-2299,101274,1
50.03500986099243,1670,-1620,-855,101726,1
50.07501816749573,-1073,-13102,5253,102502,1
50.11500358581543,-5721,-5806,9634,101914,1
50.15496850013733,644,-3459,242,101830,1
50.194987058639526,1310,985,66,101778,1
50.23513889312744,307,6728,70,101793,1
50.275020122528076,4996,9775,2294,101836,1
50.3150155544281,2465,7061,3687,101847,1
50.355109453201294,1644,1290,-1323,101997,1
50.39503479003906,2527,-5750,-2916,102244,1
50.434019327163696,-4274,-12135,7277,101090,1
50.47407531738281,-3513,-3649,10012,99114,1
50.513997316360474,2406,-5008,-1067,100036,1
50.55414032936096,677,-1437,1230,100377,1
50.59413385391235,-307,1634,391,100886,1
50.63402032852173,1370,4803,-563,101196,1
50.67447018623352,-1326,10839,3949,101242,1
50.714038610458374,1662,7010,6501,101245,1
50.754276514053345,-2880,3713,2427,101441,1
50.79414105415344,411,3575,-1681,101539,1
50.83448815345764,2573,168,-1476,101577,1
50.87399458885193,1029,-7813,1848,101698,1
50.914023637771606,-8273,-9847,7072,100187,1
50.95449948310852,2798,-7431,3259,100346,1
50.99302816390991,342,-3509,-719,101122,1
51.03308606147766,2459,1020,584,101444,1
51.0730140209198,1380,4816,740,101709,1
51.113014936447144,2514,10539,1107,101900,1
51.15299963951111,4601,8288,3334,101796,1
51.19301748275757,677,4307,2168,101878,1
51.23366189002991,951,651,-361,102096,1
51.27308797836304,83,-5062,-684,102272,1
51.31304597854614,-2326,-10701,4891,101543,1
51.35302925109863,-4899,-3063,8092,100679,1
51.39312434196472,1360,-4694,-78,101576,1
51.43302321434021,1145,-2084,1094,101734,1
51.472989559173584,628,1516,237,101896,1
51.5120267868042,-233,4693,1465,101999,1
51.55203890800476,-653,7393,4187,102097,1
51.59250783920288,3020,7925,7347,102015,1
51.63200902938843,-357,3985,2748,102171,1
51.671995639801025,255,3223,-2618,102422,1
51.71203589439392,2657,-1211,-4363,102565,1
51.752068281173706,1682,-9581,1573,103020,1
51.79202699661255,-7286,-6664,11746,101124,1
51.832871437072754,2509,-6391,1565,101443,1
51.872031927108765,556,-3333,-80,101921,1
51.91201448440552,855,422,1835,102123,1
51.95200991630554,485,3201,-967,102286,1
51.9919958114624,-1118,6424,975,102317,1
52.032013177871704,181,8106,2468,102266,1
52.07110357284546,1363,6090,3715,102294,1
52.111257553100586,-102,4182,979,102530,1
52.15102791786194,1935,3146,-1510,102608,1
52.19151854515076,2593,-2019,-1193,102662,1
52.231017112731934,384,-10706,2468,102637,1
52.27104043960571,-8863,-4531,11767,100817,1
52.31164836883545,2448,-6337,1716,101228,1
52.35101079940796,384,-2797,632,101816,1
52.39102578163147,1034,933,1403,102105,1
52.431023597717285,460,3577,70,102301,1
52.471107959747314,-557,6453,2393,102328,1
52.511948108673096,2657,7351,5204,102235,1
52.55130934715271,2521,4920,3220,102317,1
52.59003925323486,1434,3968,-163,102561,1
52.630126953125,2427,914,-2328,102696,1
52.67016959190369,1467,-5927,1102,103394,1
52.71007752418518,-6358,-10468,8250,102041,1
52.75005912780762,-548,-5467,4751,101735,1
52.790465354919434,289,-3023,-663,102436,1
52.83022141456604,820,431,1936,102626,1
52.869993448257446,291,3019,551,102827,1
52.910139083862305,525,4959,919,102846,1
52.9501314163208,1127,7072,3119,102739,1
52.99049615859985,2250,6449,3894,102763,1
53.030014753341675,621,4509,1681,102881,1
53.07046699523926,1769,2738,-887,103104,1
53.11001181602478,1805,-2036,-947,103232,1
53.14904856681824,-1119,-13076,2462,103143,1
53.18907809257507,-7584,-5194,10962,100936,1
53.22930431365967,2930,-6169,512,101798,1
53.26908898353577,-11,-1019,1063,102355,1
53.30902361869812,958,3102,1174,102619,1
53.349525690078735,1135,5579,1096,102659,1
53.389031171798706,3328,7626,4018,102651,1
53.429060220718384,2731,5600,3378,102704,1
53.46948170661926,-48,3170,-175,102849,1
53.50912165641785,1410,2730,-707,102866,1
53.54901170730591,1626,261,128,102915,1
53.589667320251465,1109,-4371,1587,103108,1
53.62907338142395,-4391,-8477,4694,102266,1
53.66806745529175,-3344,-3783,6780,101420,1
53.708489418029785,1263,-3883,543,102306,1
53.74806451797485,137,-440,2310,102675,1
53.78801202774048,285,2656,999,102923,1
53.828041553497314,956,5339,1801,102998,1
53.868462324142456,1533,7636,3427,102967,1
53.90802502632141,2451,6468,4364,103033,1
53.948410511016846,542,3854,395,103233,1
53.98804259300232,2108,2985,-1553,103299,1
54.02804112434387,3245,-1781,-1947,103393,1
54.06848978996277,-316,-11377,2569,103217,1
54.108081340789795,-8760,-4525,11347,101173,1
54.148040771484375,2455,-6336,1665,102125,1
54.18804144859314,1052,-2836,-712,102521,1
54.22714710235596,1613,864,746,102682,1
54.26747274398804,791,3825,-227,102886,1
54.307119369506836,-191,6009,1444,102903,1
54.34704327583313,1132,7023,4319,102879,1
54.387043714523315,1103,5472,4571,102969,1
54.42704916000366,427,3536,1894,103146,1
54.46748232841492,1104,2480,128,103304,1
54.50704908370972,1330,-1378,-1199,103951,1
54.547035217285156,1264,-9811,3253,103762,1
54.58708429336548,-8570,-4788,11975,101957,1
54.627073526382446,3257,-6582,288,102648,1
54.667495012283325,566,-1970,1118,102645,1
54.70703411102295,1183,1801,1624,102860,1
54.74603486061096,219,3935,-891,103016,1
54.786184310913086,2347,8566,764,103039,1
54.826037645339966,5444,7646,1742,103013,1
54.8664014339447,-1045,4990,1543,103115,1
54.906081438064575,1684,3781,106,103296,1
54.94605255126953,2572,-414,-1137,103686,1
54.98611545562744,994,-7516,3171,104504,1
55.02605748176575,-7789,-7804,10988,103887,1
55.066049337387085,925,-7904,2978,103525,1
55.106037616729736,515,-3815,-757,103551,1
55.14614725112915,806,675,196,103562,1
55.18603038787842,712,4607,1155,103535,1
55.22613573074341,2529,7018,5034,103562,1
55.2660768032074,4458,7680,6550,103446,1
55.3050377368927,903,4322,1750,103734,1
55.34532570838928,1161,3016,-2071,103892,1
55.38506317138672,3164,-109,-3356,103949,1
55.42508578300476,963,-6795,4037,104559,1
55.46506071090698,-9743,-11005,8648,103279,1
55.50510597229004,1721,-8062,4449,103126,1
55.54505205154419,2267,-2776,-408,103537,1
55.585134744644165,2582,2915,934,103639,1
55.62504196166992,2876,7754,129,103843,1
55.6650710105896,8063,10114,426,103771,1
55.70506262779236,-1093,5846,3276,103693,1
55.745046854019165,287,3190,1197,103844,1
55.78546404838562,1053,1691,186,103917,1
55.825042486190796,1031,-2116,1189,104259,1
55.86508297920227,-274,-12486,3357,104080,1
55.904146671295166,-6102,-4000,9343,102530,1
55.94404625892639,2184,-5181,-83,103102,1
55.98447299003601,255,-1232,1126,103327,1
56.024524450302124,502,2445,1636,103508,1
56.06402826309204,-7,4762,985,103574,1
56.10404443740845,2171,7081,3830,103585,1
56.144930362701416,4347,7172,3331,103608,1
56.184043645858765,1530,4198,-902,103754,1
56.22404885292053,1920,2070,-1403,103787,1
56.26406788825989,1399,-3550,-775,103907,1
56.304075717926025,-2923,-14323,5153,102999,1
56.34407305717468,-2805,-4764,8645,101892,1
56.384459495544434,1619,-3605,1034,102930,1
56.424057483673096,1215,681,1555,103272,1
56.46310901641846,235,4296,381,103556,1
56.503047466278076,-557,7339,170,103552,1
56.54351782798767,2016,8435,4234,103426,1
56.5834801197052,1207,5448,2454,103659,1
56.62308931350708,1190,3580,-1441,103756,1
56.663084506988525,1675,-485,-1005,103834,1
56.70306992530823,506,-10748,1648,104019,1
56.74345779418945,-7202,-8463,9843,101087,1
56.78348517417908,3056,-5507,1773,101451,1
56.82306909561157,525,-1632,-424,102106,1
56.86306071281433,899,1875,686,102485,1
56.903048038482666,531,4951,671,102606,1
56.94305729866028,2370,6249,3843,102526,1
56.983062505722046,1926,6026,6443,102405,1
57.022048234939575,-45,3793,2188,102708,1
57.06205725669861,327,2635,-1135,102901,1
57.102463722229004,1649,999,-621,102941,1
57.142104148864746,1365,-4335,671,103332,1
57.182096004486084,-4518,-11062,3737,102163,1
57.22206902503967,-2371,-5421,6080,101010,1
57.26204490661621,684,-2757,-135,102097,1
57.302467584609985,311,1510,2512,102472,1
57.3420524597168,646,4856,1721,102767,1
57.38209629058838,247,6624,2646,102684,1
57.422141551971436,2073,6778,7973,102552,1
57.462080001831055,-47,3093,4201,102641,1
57.502734422683716,-323,2033,867,102784,1
57.54216909408569,595,298,407,103048,1
57.58206534385681,834,-3187,-1570,103177,1
57.62110209465027,-2111,-7715,4173,102413,1
57.66137933731079,-4147,-3769,8080,101326,1
57.70108199119568,1126,-4588,631,102485,1
57.74112343788147,148,-1743,1195,102767,1
57.78120231628418,714,1412,1175,102982,1
57.82106685638428,949,4570,1082,102961,1
57.86174988746643,2224,7861,2215,103041,1
57.901480197906494,5483,7121,-874,103212,1
57.94105839729309,675,4153,-3007,103271,1
57.98109483718872,1856,2335,-1841,103238,1
58.021162033081055,1938,-1761,823,103204,1
58.061678409576416,1249,-9414,6118,103270,1
58.101552963256836,-9063,-6222,9582,101996,1
58.14110970497131,2584,-6041,3292,102300,1
58.18009972572327,1532,-3515,122,102678,1
58.22024631500244,609,571,833,102913,1
58.260069608688354,877,3869,-208,103129,1
58.300084829330444,260,8139,876,103126,1
58.34014010429382,3870,8274,4937,102960,1
58.38006591796875,296,4950,3001,103017,1
58.42009878158569,155,3748,-479,103168,1
58.46010494232178,2393,-55,-4155,103201,1
58.50009083747864,1150,-7327,1677,103280,1
58.540080070495605,-7859,-10831,7237,100930,1
58.58009600639343,2135,-6065,2546,101351,1
58.62007713317871,411,-2083,279,101967,1
58.6600501537323,1787,1217,756,102307,1
58.700194120407104,427,4287,1896,102659,1
58.74007177352905,-122,6476,2176,102778,1
58.7791805267334,-1286,6221,5892,102714,1
58.81908202171326,-362,3744,6766,102754,1
58.85908555984497,-1881,1623,1653,103111,1
58.89906096458435,-36,2329,-1320,103271,1
58.9390914440155,1573,1415,-1834,103218,1
58.97909426689148,872,-1676,-150,103227,1
59.01907682418823,658,-5712,1864,102623,1
59.05908155441284,-3136,-4620,7153,100232,1
59.09911227226257,-667,-2792,4069,100501,1
59.13908362388611,976,-2432,-71,101307,1
59.17909288406372,1009,-562,710,101650,1
59.21906113624573,-264,963,667,102010,1
59.25904655456543,-3,1968,311,102297,1
59.29808807373047,-816,3310,1285,102507,1
59.338114738464355,-2374,3608,825,102536,1
59.3782856464386,-1772,3582,3669,102477,1
59.418302059173584,-480,3241,4981,102514,1
59.458118200302124,-1873,1814,2534,102610,1
59.4980947971344,-2118,1417,1144,102727,1
59.53837323188782,-575,1988,776,102765,1
59.578312158584595,561,2435,224,102815,1
59.61858081817627,964,1454,-31,102775,1
59.65808892250061,764,612,410,102744,1
59.69810223579407,641,-1170,718,102679,1
59.73809313774109,499,-2446,1869,101974,1
59.778329610824585,-664,-3046,3463,100113,1
59.81761288642883,-2765,-1514,4645,99316,1
59.857139110565186,-918,-1619,2716,99505,1
59.89706230163574,590,-1638,1418,99934,1
59.93707990646362,367,-598,1240,100298,1
59.97717022895813,-168,396,1289,100631,1
60.017136573791504,-884,1294,1828,100979,2
60.0570912361145,-401,1947,948,101236,2
60.09718871116638,-992,3042,1129,101506,2
60.13711357116699,-1242,3693,817,101741,2
60.17747354507446,-1504,3603,1591,101839,2
60.21720290184021,-949,3261,2533,101967,2
60.257142066955566,-1032,2528,1493,102151,2
60.2970712184906,-753,2220,-161,102251,2
60.33747363090515,111,1911,294,102232,2
60.37608218193054,327,1302,1131,102259,2
60.41606569290161,543,85,546,102269,2
60.4560821056366,99,-1098,1002,102234,2
60.496143102645874,192,-1811,1772,101352,2
60.5361065864563,-104,-1710,2478,100426,2
60.57655715942383,-928,-1674,2597,100023,2
60.616106033325195,-2229,-759,3480,99311,2
60.65645146369934,-690,-736,2593,98811,2
60.696061849594116,16,-797,1865,98745,2
60.73669171333313,282,-360,1070,98992,2
60.776052951812744,176,194,919,99206,2
60.81627011299133,108,544,1096,99574,2
60.85636854171753,-58,384,1189,99708,2
60.895145893096924,-774,354,2047,99471,2
60.93508958816528,-1237,198,2295,99396,2
60.97581887245178,-1477,132,2488,99255,2
61.015087842941284,-1725,227,2965,99215,2
61.05508375167847,-2000,255,2722,99588,2
61.09511470794678,-1615,342,2619,100084,2
61.13508105278015,-1170,377,2843,100304,2
61.17617702484131,-1022,305,3051,100262,2
61.21509027481079,-826,244,2775,99794,2
61.25512218475342,-1118,111,2539,99478,2
61.29511260986328,-1163,30,2130,99552,2
61.335076093673706,-861,66,2084,99819,2
61.375152826309204,-755,197,1751,100524,2
61.415117025375366,-640,349,1567,101274,2
61.4541974067688,-482,419,1064,101631,2
61.4950749874115,-544,559,798,101857,2
61.534090995788574,-429,603,435,102034,2
61.57412838935852,-270,711,183,102173,2
61.61419486999512,138,622,128,102274,2
61.654112339019775,29,339,547,102389,2
61.694573402404785,-170,-39,1363,102528,2
61.73418712615967,-351,-435,1832,102597,2
61.77411603927612,-919,-619,2830,102461,2
61.81411910057068,-890,-667,3132,102258,2
61.85415267944336,-870,-558,2896,101717,2
61.89501667022705,-764,-365,2909,101403,2
61.93411993980408,-681,-191,2659,101531,2
61.97309923171997,-657,-147,2530,101768,2
62.01310110092163,-547,-183,2173,102004,2
62.05310249328613,-607,-229,2151,102089,2
62.09332013130188,-386,-254,2133,102187,2
62.1331741809845,-416,-270,1801,102395,2
62.17317771911621,-541,-310,1636,102616,2
62.21317911148071,-547,-273,1756,102764,2
62.253135681152344,-522,-284,1725,102855,2
62.29315781593323,-308,-183,1739,102886,2
62.33311748504639,-269,-222,1850,102889,2
62.37311124801636,-504,-243,2221,102870,2
62.41336250305176,-497,-221,2171,102942,2
62.45313572883606,-412,-209,1852,103084,2
62.49214029312134,-330,-130,2081,102852,2
62.5321204662323,-289,-174,2110,102447,2
62.57211518287659,-431,-227,1983,102466,2
62.61214780807495,-464,-232,1962,102571,2
62.65212965011597,-445,-252,1897,102666,2
62.69211769104004,-492,-277,1905,102747,2
62.73252320289612,-407,-204,1917,102705,2
62.77212691307068,-387,-193,2008,102603,2
62.81228232383728,-452,-204,2073,102615,2
62.85210704803467,-569,-251,1958,102685,2
62.89219927787781,-537,-180,2048,102714,2
62.93216300010681,-439,-189,1998,102761,2
62.97210764884949,-473,-230,2071,102814,2
63.01216387748718,-482,-247,2029,102907,2
63.05112314224243,-465,-248,1954,102973,2
63.091392993927,-490,-247,1962,103014,2
63.131129026412964,-490,-239,2010,103056,2
63.17112898826599,-449,-252,1977,102981,2
63.211716651916504,-500,-247,2006,102266,2
63.251136779785156,-512,-246,1992,101870,2
63.29115152359009,-533,-254,1982,101905,2
63.33111357688904,-533,-276,1973,102046,2
63.371129274368286,-509,-256,1997,102240,2
63.411576986312866,-467,-242,1961,102434,2
63.4511353969574,-471,-264,1976,102474,2
63.49111461639404,-510,-238,2118,102514,2
63.53112983703613,-596,-255,2027,102732,2
63.57019066810608,-595,-235,1874,102967,2
63.61014652252197,-509,-165,1814,103114,2
63.650115966796875,-475,-169,1795,103226,2
63.69023942947388,-415,-135,1876,103299,2
63.730087995529175,-355,-113,1924,103359,2
63.770105600357056,-387,-136,1927,103450,2
63.81010580062866,-455,-157,1971,103497,2
63.8501296043396,-473,-211,2058,103324,2
63.89015078544617,-496,-217,2058,102544,2
63.930131673812866,-409,-201,2044,102134,2
63.970139026641846,-296,-217,2019,102221,2
64.01051044464111,-264,-273,2060,102356,2
64.05018544197083,-229,-242,2170,102590,2
64.08917951583862,-270,-236,1928,102842,2
64.1291675567627,-375,-199,1776,102966,2
64.1691541671753,-478,-203,1830,103031,2
64.20916318893433,-535,-221,2003,103092,2
64.24912643432617,-601,-238,2107,103177,2
64.28915739059448,-563,-259,2047,103242,2
64.32914304733276,-515,-258,2009,103293,2
64.36922073364258,-495,-272,1953,103358,2
64.40916132926941,-448,-309,1959,103369,2
64.44913625717163,-460,-305,2024,103352,2
64.48917078971863,-362,-347,2025,103265,2
64.52912449836731,-467,-353,2133,102561,2
64.56914448738098,-447,-352,2038,102093,2
64.60911536216736,-406,-348,1991,102219,2
64.64915704727173,-346,-357,1949,102523,2
64.68810939788818,-310,-368,1971,102892,2
64.72842812538147,-391,-396,2013,103146,2
64.76816082000732,-162,-404,2230,103272,2
64.80815291404724,-232,-370,1895,103531,2
64.84813690185547,-459,-444,1631,103749,2
64.88811993598938,-765,-404,2064,103873,2
64.92851281166077,-778,-435,2152,103941,2
64.96846151351929,-658,-333,1888,104014,2
65.00813126564026,-524,-302,1849,104067,2
65.0481264591217,-502,-332,1890,104066,2
65.08819794654846,-499,-398,1795,104110,2
65.12854409217834,-342,-379,1678,104141,2
65.16814351081848,-251,-281,1677,104172,2
65.20820903778076,-393,-503,1828,103831,2
65.24746823310852,-439,-453,2250,103264,2
65.28735089302063,-317,-434,1918,103423,2
65.32715845108032,-308,-444,1627,103696,2
65.36714315414429,-218,-231,1625,103929,2
65.40734219551086,-53,-33,1428,104099,2
65.44715762138367,147,-248,1393,104115,2
65.48713970184326,-174,-471,1537,104150,2
65.52712607383728,-71,-465,1416,104201,2
65.56715416908264,146,-566,1236,104204,2
65.60715436935425,-286,-1038,1491,104160,2
65.64741635322571,-501,-1192,1688,104128,2
65.68715381622314,-209,-1600,1565,104159,2
65.72720336914062,-438,-1863,1913,104082,2
65.76715159416199,-514,-2044,2406,103876,2
65.8071436882019,-901,-1915,2712,103518,2
65.8461685180664,-1380,-1408,2964,103281,2
65.8862714767456,-866,-1351,2311,102913,2
65.92614221572876,-315,-1526,1699,102286,2
65.96615290641785,-129,-1501,1306,102101,2
66.00619435310364,-159,-1495,1055,101988,2
66.04616403579712,-306,-1521,1158,101802,2
66.08661365509033,-344,-1647,1096,101685,2
66.12654757499695,-409,-1775,1076,101414,2
66.16615271568298,-515,-1831,1112,101194,2
66.20615267753601,-597,-1872,1141,101045,2
66.24617791175842,-589,-2088,769,101142,2
66.28613996505737,-711,-2021,593,101262,2
66.32614636421204,-625,-1876,588,101254,2
66.36655521392822,-411,-1673,796,101269,2
66.4061496257782,-272,-1625,802,101435,2
66.44561624526978,-286,-1659,708,101682,2
66.48517870903015,-403,-1827,745,101797,2
66.52513146400452,-501,-1927,813,101947,2
66.56515455245972,-773,-1919,741,101721,2
66.60520458221436,-1006,-1737,849,101118,2
66.64519953727722,-851,-1629,1092,100828,2
66.68519806861877,-576,-1588,1227,100727,2
66.72516083717346,-466,-1623,1098,100754,2
66.76516962051392,-613,-1719,1017,100881,2
66.80524611473083,-762,-1769,1032,100917,2
66.84548425674438,-889,-1719,1104,100847,2
66.8851706981659,-810,-1674,1196,100846,2
66.92515277862549,-604,-1643,1229,100875,2
66.96516513824463,-483,-1694,1103,101096,2
67.00575828552246,-562,-1704,983,101344,2
67.04475831985474,-564,-1669,1021,101446,2
67.08420729637146,-486,-1572,1112,101510,2
67.12416291236877,-491,-1575,1099,101647,2
67.16415882110596,-516,-1628,1068,101817,2
67.20417833328247,-554,-1633,1055,101983,2
67.24473810195923,-584,-1537,1065,102188,2
67.28418636322021,-557,-1508,1021,102370,2
67.3241662979126,-619,-1496,1055,101917,2
67.36415529251099,-714,-1501,1100,101323,2
67.4042420387268,-783,-1486,1106,101279,2
67.44418287277222,-888,-1480,1153,101342,2
67.48466181755066,-942,-1446,1189,101606,2
67.52422261238098,-958,-1453,1151,101832,2
67.5641679763794,-1014,-1413,1152,101918,2
67.60417985916138,-1015,-1351,1284,101912,2
67.6431782245636,-1012,-1321,1400,101930,2
67.68317937850952,-997,-1364,1400,102084,2
67.72324419021606,-861,-1404,1287,102245,2
67.76325726509094,-773,-1366,1212,102389,2
67.80316972732544,-756,-1330,1264,102509,2
67.84326410293579,-766,-1372,1235,102608,2
67.88328790664673,-782,-1407,1193,102703,2
67.92317485809326,-761,-1414,1179,102799,2
67.96318650245667,-766,-1446,1231,102821,2
68.00316286087036,-712,-1403,1283,102272,2
68.04316425323486,-744,-1410,1298,101658,2
68.08356094360352,-817,-1420,1128,101938,2
68.12319898605347,-891,-1361,1165,102290,2
68.16316509246826,-772,-1349,1279,102469,2
68.20324945449829,-822,-1448,1314,102699,2
68.24221515655518,-849,-1550,1200,102822,2
68.28221702575684,-856,-1523,1218,102777,2
68.32225894927979,-827,-1581,1238,102712,2
68.36219525337219,-759,-1511,1149,102747,2
68.40267300605774,-584,-1492,940,102815,2
68.44220972061157,-422,-1622,752,102842,2
68.4821789264679,-610,-1763,708,102828,2
68.52218508720398,-522,-1703,939,102715,2
68.56219673156738,-271,-1570,1046,102658,2
68.60260009765625,-408,-1708,925,102700,2
68.64216136932373,-570,-1771,933,102670,2
68.6824541091919,-535,-1843,901,102023,2
68.72217535972595,-472,-2035,753,101335,2
68.76229166984558,-591,-1979,756,101110,2
68.80237555503845,-781,-1795,1016,100897,2
68.84119939804077,-908,-1757,1255,100719,2
68.881183385849,-835,-1941,1041,100811,2
68.92117643356323,-996,-2058,758,100979,2
68.96137285232544,-1250,-1936,733,101020,2
69.00116157531738,-1078,-1873,779,100958,2
69.04116940498352,-844,-1880,806,100966,2
69.08140540122986,-823,-1888,762,101027,2
69.12129497528076,-704,-1900,570,101150,2
69.16167902946472,-677,-1900,563,101238,2
69.20118713378906,-645,-1947,555,101316,2
69.24115896224976,-598,-1861,553,101441,2
69.28119039535522,-585,-1727,636,101554,2
69.32121443748474,-521,-1670,768,101616,2
69.36202764511108,-384,-1689,921,101449,2
69.40019416809082,-349,-1741,999,100737,2
69.44020962715149,-370,-1773,1035,100249,2
69.48019075393677,-358,-1756,1002,100044,2
69.5201804637909,-338,-1685,977,100029,2
69.56019949913025,-258,-1598,994,100118,2
69.60016965866089,-239,-1604,975,100300,2
69.64017915725708,-348,-1643,953,100402,2
69.680180311203,-442,-1651,1023,100485,2
69.72067904472351,-602,-1664,1021,100657,2
69.76018738746643,-664,-1694,1136,100800,2
69.80018186569214,-690,-1713,1112,101012,2
69.84037756919861,-707,-1676,1060,101226,2
69.88050889968872,-597,-1611,1067,101433,2
69.92026829719543,-565,-1599,1089,101659,2
69.96024346351624,-613,-1639,1027,101855,2
69.99922442436218,-679,-1582,1043,101984,2
70.03982138633728,-718,-1619,1088,102129,2
70.07923626899719,-746,-1659,1029,101764,2
70.11918711662292,-804,-1690,999,100960,2
70.15924549102783,-735,-1635,1032,100713,2
70.1992290019989,-678,-1609,1089,100664,2
70.2392008304596,-719,-1622,1103,100627,2
70.27924871444702,-731,-1620,1136,100665,2
70.31928610801697,-731,-1654,1139,100713,2
70.35925149917603,-703,-1715,1060,100685,2
70.39956450462341,-652,-1781,902,100758,2
70.4395637512207,-527,-1626,852,100913,2
70.47921991348267,-469,-1645,923,100938,2
70.51928329467773,-524,-1659,1009,100876,2
70.55819749832153,-681,-1653,1108,100883,2
70.59820365905762,-729,-1692,1210,101000,2
70.6382474899292,-679,-1715,1135,101352,2
70.6782910823822,-510,-1672,908,101734,2
70.71817564964294,-366,-1639,871,101917,2
70.75821113586426,-483,-1635,917,101303,2
70.79819250106812,-616,-1636,1076,100729,2
70.83820796012878,-697,-1706,1041,100702,2
70.8784511089325,-723,-1719,876,100815,2
70.91820049285889,-626,-1664,917,100779,2
70.95819306373596,-627,-1604,1077,100838,2
70.99819231033325,-647,-1684,1084,101007,2
71.03820013999939,-707,-1695,973,101219,2
71.0786600112915,-676,-1660,1016,101303,2
71.11820983886719,-628,-1639,1033,101331,2
71.15719389915466,-683,-1614,1092,101422,2
71.19737982749939,-655,-1713,1106,101641,2
71.23719000816345,-643,-1671,929,101996,2
71.2772126197815,-582,-1674,921,102200,2
71.31720447540283,-567,-1699,945,102252,2
71.35718131065369,-705,-1746,946,102325,2
71.39720487594604,-677,-1719,1084,102439,2
71.43720364570618,-700,-1619,1215,102465,2
71.47724771499634,-622,-1588,1206,101953,2
71.51721596717834,-555,-1623,1089,101639,2
71.55731749534607,-577,-1634,1020,101726,2
71.59722518920898,-747,-1628,1032,101867,2
71.63724851608276,-827,-1582,1005,102034,2
71.67723989486694,-712,-1675,881,102039,2
71.71729898452759,-755,-1710,838,101862,2
71.75619053840637,-720,-1727,988,101815,2
71.79620671272278,-612,-1730,1118,102070,2
71.83627915382385,-539,-1625,1169,102421,2
71.87621450424194,-280,-1566,1219,102695,2
71.91620302200317,-67,-1552,1224,102961,2
71.95622396469116,-172,-1576,1218,103177,2
71.99647998809814,-301,-1596,1265,103316,2
72.03642392158508,-444,-1619,1270,103382,2
72.07623338699341,-561,-1690,1296,103387,2
72.11621952056885,-696,-1784,1279,103202,2
72.15620875358582,-739,-1735,1168,102348,2
72.19622588157654,-625,-1576,1041,101742,2
72.23624610900879,-506,-1503,1022,101678,2
72.27618622779846,-478,-1456,1002,101858,2
72.31621527671814,-597,-1451,978,102117,2
72.3551983833313,-676,-1516,873,102392,2
72.39560437202454,-608,-1734,703,102481,2
72.43521046638489,-533,-1845,584,102355,2
72.47522449493408,-764,-1793,703,102205,2
72.51536917686462,-894,-1891,917,102321,2
72.55523419380188,-983,-1827,1046,102701,2
72.59561467170715,-980,-1674,997,103090,2
72.6352469921112,-706,-1614,976,103379,2
72.67519521713257,-538,-1628,975,103550,2
72.71520400047302,-508,-1716,862,103657,2
72.75541424751282,-567,-1728,785,103746,2
72.79546523094177,-545,-1743,796,103785,2
72.83592510223389,-509,-1818,781,103159,2
72.8752555847168,-861,-1849,1000,101961,2
72.91523003578186,-1171,-1932,1286,101479,2
72.95423793792725,-1205,-1909,1533,101302,2
72.99424409866333,-1007,-2050,1443,101507,2
73.03420639038086,-763,-1972,939,102049,2
73.07429146766663,-475,-1622,1076,102285,2
73.11419558525085,-269,-1536,1196,102221,2
73.15422654151917,-248,-1656,1133,102286,2
73.19422602653503,-335,-1607,1091,102578,2
73.234219789505,-362,-1638,865,102920,2
73.27427053451538,-236,-1501,934,103171,2
73.31433439254761,-28,-1322,1127,103310,2
73.35424757003784,21,-1287,1130,103472,2
73.39521503448486,-56,-1305,1082,103593,2
73.43422365188599,-243,-1375,1044,103696,2
73.47425365447998,-306,-1509,980,103798,2
73.51322078704834,-431,-1472,1211,103813,2
73.55340600013733,-619,-1517,1368,103941,2
73.59321641921997,-727,-1574,1453,104065,2
73.6332573890686,-866,-1788,1246,104146,2
73.67328000068665,-853,-1624,1311,104229,2
73.71336078643799,-668,-1546,1246,104282,2
73.75321197509766,-532,-1704,968,104332,2
73.79321193695068,-482,-1952,835,104368,2
73.83323097229004,-427,-2143,764,104381,2
73.87363076210022,-423,-2109,502,104385,2
73.91322684288025,-298,-2027,279,104378,2
73.95322179794312,-158,-2003,467,104380,2
73.993239402771,-328,-1840,761,104408,2
74.03339695930481,-561,-1667,625,104482,2
74.07321882247925,-560,-1636,553,104514,2
74.11222815513611,-532,-1822,679,104542,2
74.15225601196289,-707,-2002,919,104452,2
74.19229865074158,-1032,-2047,1034,104103,2
74.23243856430054,-1155,-1990,990,103876,2
74.27222657203674,-907,-1973,940,103918,2
74.31223893165588,-618,-1891,890,104023,2
74.35225033760071,-624,-1750,885,104134,2
74.39234638214111,-694,-1573,1159,104199,2
74.43223881721497,-671,-1679,1238,104249,2
74.472238779068,-709,-1863,1032,104308,2
74.51246380805969,-738,-1997,748,104394,2
74.55222725868225,-763,-1975,548,104461,2
74.59225034713745,-741,-1731,714,104500,2
74.63228487968445,-300,-1523,1006,104614,2
74.67230534553528,-538,-1550,1140,104730,2
74.71193718910217,-435,-1773,1026,104762,2
74.75124859809875,-404,-1789,1014,104806,2
74.79122543334961,-402,-1700,1048,104844,2
74.83119821548462,-270,-1652,958,104808,2
74.87124538421631,-251,-1500,1046,104679,2
74.91130495071411,-71,-1441,1311,104658,2
74.95143151283264,69,-1336,1477,104699,2
74.99122166633606,88,-1225,1397,104780,2
75.0311975479126,79,-1353,1241,104831,2
75.07120537757874,0,-1560,1313,104837,2
75.11241316795349,-290,-1727,1531,104806,2
75.15126657485962,-737,-1701,1675,104801,2
75.19134902954102,-899,-1561,1731,104830,2
75.23125410079956,-1054,-1597,1443,104910,2
75.27124309539795,-642,-1777,1153,104964,2
75.31025958061218,-510,-1676,1228,104999,2
75.35023069381714,-377,-1607,1151,105046,2
75.39029669761658,-223,-1569,978,105091,2
75.43022871017456,-135,-1527,969,105143,2
75.47046446800232,-115,-1548,946,105122,2
75.51044750213623,-157,-1598,953,105038,2
75.55025124549866,-283,-1650,1071,104991,2
75.59031844139099,-362,-1696,1221,104995,2
75.63034176826477,-486,-1657,1273,105008,2
75.6702527999878,-424,-1638,1260,105013,2
75.71029090881348,-346,-1641,1289,105034,2
75.75066685676575,-346,-1617,1278,105020,2
75.79028916358948,-354,-1640,1188,105042,2
75.83024263381958,-378,-1672,1140,105067,2
75.86940431594849,-425,-1661,1178,105098,2
75.90924310684204,-468,-1661,1206,105123,2
75.94924306869507,-464,-1698,1157,105138,2
75.98945236206055,-421,-1694,1164,105162,2
76.02924656867981,-347,-1707,1169,105187,2
76.0693826675415,-314,-1688,1127,105208,2
76.1092700958252,-264,-1696,1115,105244,2
76.1492555141449,-229,-1677,1140,105121,2
76.18924355506897,-207,-1659,1167,104940,2
76.22926020622253,-235,-1653,1163,104882,2
76.26925039291382,-235,-1666,1154,104965,2
76.30923891067505,-221,-1676,1164,105017,2
76.34924626350403,-226,-1677,1118,105069,2
76.38925790786743,-274,-1627,1152,105095,2
76.42938351631165,-337,-1629,1206,105129,2
76.46829676628113,-385,-1650,1170,105172,2
76.50829434394836,-387,-1662,1092,105216,2
76.54821062088013,-385,-1675,1105,105254,2
76.5882875919342,-407,-1670,1103,105315,2
76.62956261634827,-422,-1647,1117,105335,2
76.66832637786865,-373,-1669,1140,105348,2
76.70828366279602,-328,-1655,1234,105363,2
76.74825739860535,-373,-1680,1180,105344,2
76.78829169273376,-261,-1584,1304,105210,2
76.82878422737122,-235,-1529,1400,104901,2
76.86899495124817,-274,-1567,1414,104810,2
76.90826082229614,-316,-1568,1345,104864,2
76.94825410842896,-298,-1648,1141,104995,2
76.9882583618164,-228,-1684,994,105114,2
77.02736115455627,-332,-1697,910,105184,2
77.06727409362793,-411,-1720,892,105212,2
77.10727095603943,-466,-1650,1000,105235,2
77.14726328849792,-420,-1734,942,105270,2
77.187264919281,-439,-1880,946,105310,2
77.22725462913513,-669,-1861,1083,105332,2
77.26730108261108,-804,-1873,940,105361,2
77.30725288391113,-751,-1777,760,105395,2
77.34723448753357,-614,-1726,793,105415,2
77.38764023780823,-467,-1762,862,105395,2
77.42772936820984,-432,-1803,864,105418,2
77.46726703643799,-428,-1863,819,105213,2
77.50724935531616,-349,-2081,722,105049,2
77.54724550247192,-484,-1945,764,105083,2
77.5862877368927,-660,-1732,970,105173,2
77.62637305259705,-571,-1557,1213,105263,2
77.66630244255066,-301,-1525,1361,105324,2
77.70630526542664,-120,-1508,1344,105381,2
77.74624371528625,-43,-1575,1295,105392,2
77.78625464439392,-70,-1755,1169,105439,2
77.82628464698792,-204,-1844,1147,105459,2
77.86667919158936,-317,-1782,1203,105467,2
77.90719151496887,-324,-1651,1226,105465,2
77.94653463363647,-233,-1530,1289,105450,2
77.98663997650146,-205,-1514,1344,105453,2
78.02626824378967,-273,-1652,1493,105425,2
78.0662784576416,-494,-1712,1622,105416,2
78.10631537437439,-672,-1605,1689,105348,2
78.14609146118164,-724,-1615,1422,105099,2
78.18536615371704,-625,-1738,990,105039,2
78.22572636604309,-523,-1742,736,105111,2
78.26539325714111,-465,-1600,834,105197,2
78.30536580085754,-545,-1493,974,105285,2
78.34544348716736,-541,-1602,900,105333,2
78.38529109954834,-482,-1714,821,105284,2
78.42528057098389,-458,-1795,975,105174,2
78.46524596214294,-501,-1834,971,105148,2
78.50536561012268,-526,-1753,978,105177,2
78.54594397544861,-417,-1712,1077,105173,2
78.58529543876648,-125,-1722,979,105222,2
78.625244140625,-74,-1687,750,105287,2
78.6649022102356,-152,-1687,626,105362,2
78.70427346229553,-485,-1750,611,105435,2
78.74429178237915,-854,-1726,687,105353,2
78.7843017578125,-1258,-1732,850,104827,2
78.82467269897461,-1330,-1721,928,104347,2
78.86442732810974,-1311,-1784,1002,104291,2
78.90447306632996,-1176,-1968,865,104427,2
78.94427490234375,-1110,-1975,723,104549,2
78.98432064056396,-571,-2019,875,104504,2
79.02429437637329,-596,-1794,938,104431,2
79.06433653831482,-646,-1765,1041,104342,2
79.1042754650116,-231,-1858,991,104344,2
79.14440679550171,297,-1848,741,104533,2
79.18427515029907,-123,-1734,605,104768,2
79.22327136993408,-858,-1776,587,104961,2
79.26352858543396,-571,-1889,569,105010,2
79.3032534122467,-72,-1796,732,105015,2
79.34380340576172,-546,-1742,920,105087,2
79.38328385353088,-593,-1700,955,105076,2
79.42328476905823,-656,-1886,1088,104671,2
79.4634599685669,-762,-1758,921,104059,2
79.50328826904297,-437,-1683,904,103890,2
79.54326748847961,-698,-1866,885,104033,2
79.58367657661438,-832,-1793,846,104132,2
79.623281955719,-480,-1784,886,104234,2
79.66341948509216,-560,-1753,765,104393,2
79.70327591896057,-517,-1786,706,104483,2
79.74325895309448,-516,-1787,791,104540,2
79.78328967094421,-683,-1847,686,104663,2
79.82231855392456,-544,-1770,824,104714,2
79.86231112480164,-595,-1733,839,104842,2
79.90227770805359,-710,-1805,790,104972,2
79.94269919395447,-917,-1814,779,105025,2
79.98232316970825,-702,-1773,825,104986,2
80.02241015434265,-584,-1792,810,104994,2
80.06227087974548,-531,-1838,845,104993,2
80.1022744178772,-557,-1850,698,104661,2
80.14284491539001,-679,-1798,698,104075,2
80.18245434761047,-800,-1795,758,103881,2
80.22230386734009,-702,-1801,746,103974,2
80.26229500770569,-585,-1803,694,104188,2
80.30228614807129,-508,-1722,778,104435,2
80.34227061271667,-795,-1752,650,104683,2
80.38130354881287,-995,-1852,531,104706,2
80.42131757736206,-697,-1784,785,104492,2
80.46130657196045,-630,-1781,893,104451,2
80.50145030021667,-640,-1832,839,104542,2
80.54129672050476,-601,-1901,832,104591,2
80.58140087127686,-532,-1873,875,104647,2
80.62148857116699,-321,-1795,717,104771,2
80.66132593154907,-529,-1755,529,104955,2
80.70128035545349,-892,-1775,409,105088,2
80.74143552780151,-1137,-1796,331,105172,2
80.78127717971802,-1131,-1865,163,105068,2
80.82128739356995,-919,-1874,74,104573,2
80.86128902435303,-897,-1784,328,104275,2
80.90130376815796,-914,-1741,441,104400,2
80.94029092788696,-1012,-1788,257,104626,2
80.9803078174591,-1115,-1786,173,104838,2
81.02058005332947,-1122,-1763,356,104882,2
81.06027507781982,-946,-1754,445,104851,2
81.10106229782104,-739,-1809,462,104848,2
81.14069151878357,-658,-1841,484,104877,2
81.1802806854248,-702,-1774,604,104901,2
81.22065663337708,-588,-1738,548,104974,2
81.26042413711548,-509,-1678,337,105098,2
81.3012101650238,-882,-1669,475,105164,2
81.34048318862915,-1054,-1807,754,105129,2
81.38032817840576,-1076,-2218,491,105190,2
81.42071461677551,-1006,-2460,125,105249,2
81.45928239822388,-609,-2069,340,104825,2
81.5000422000885,-514,-1757,521,104121,2
81.53954911231995,-678,-1830,429,104134,2
81.5792908668518,-767,-1876,382,104306,2
81.61935377120972,-1132,-1738,735,104366,2
81.65933966636658,-1297,-1751,811,104548,2
81.69931483268738,-1234,-1641,948,104634,2
81.73941540718079,-899,-1543,1018,104635,2
81.77938556671143,-354,-1744,804,104678,2
81.8195972442627,-383,-1735,660,104811,2
81.85936188697815,-809,-1612,647,104968,2
81.89958477020264,-761,-1485,917,105005,2
81.9395227432251,-641,-1499,979,105076,2
81.97928953170776,-519,-1605,852,105149,2
82.01835107803345,-495,-1783,801,105194,2
82.05836606025696,-655,-1791,857,105199,2
82.09863901138306,-727,-1693,858,105242,2
82.1383535861969,-733,-1720,781,105344,2
82.17910480499268,-701,-1756,612,105164,2
82.21828556060791,-581,-1861,482,104645,2
82.25835824012756,-579,-1927,483,104406,2
82.29844331741333,-662,-1868,574,104390,2
82.33837270736694,-741,-1831,641,104401,2
82.37872815132141,-760,-1874,609,104542,2
82.41830205917358,-788,-1908,549,104626,2
82.45837235450745,-816,-1878,580,104644,2
82.49849033355713,-876,-1800,619,104699,2
82.53730654716492,-797,-1889,550,104827,2
82.5773696899414,-757,-1909,491,104964,2
82.61729574203491,-877,-1884,486,105050,2
82.65737342834473,-836,-1816,538,105118,2
82.69730019569397,-859,-1786,553,105213,2
82.73733925819397,-836,-1884,543,105268,2
82.77732253074646,-721,-1870,510,105351,2
82.81732106208801,-670,-1822,490,105399,2
82.8576819896698,-558,-1808,587,105409,2
82.89738535881042,-571,-1835,651,105342,2
82.93761658668518,-622,-1862,591,104824,2
82.97751832008362,-692,-1856,635,104293,2
83.01737952232361,-714,-1903,672,104215,2
83.05751967430115,-642,-1859,710,104300,2
83.09637546539307,-591,-1840,704,104425,2
83.1363697052002,-652,-1858,686,104593,2
83.17644119262695,-753,-1858,701,104657,2
83.21635675430298,-779,-1850,753,104700,2
83.25636672973633,-690,-1841,737,104747,2
83.29632759094238,-548,-1799,711,104809,2
83.33631443977356,-488,-1787,739,104900,2
83.3763837814331,-501,-1841,672,105008,2
83.41677784919739,-548,-1706,638,105130,2
83.45670962333679,-776,-1520,677,105227,2
83.49640083312988,-1033,-1608,732,105355,2
83.53643751144409,-1084,-1804,729,105364,2
83.57635498046875,-859,-1885,629,105340,2
83.61636924743652,-526,-1842,591,105336,2
83.65538048744202,-473,-1775,689,105318,2
83.6954562664032,-630,-1771,771,105226,2
83.73547101020813,-672,-1779,850,104544,2
83.77551579475403,-714,-1828,862,104009,2
83.81532192230225,-704,-1833,895,103907,2
83.85537457466125,-668,-1780,926,103924,2
83.89554929733276,-631,-1724,938,103961,2
83.93562698364258,-588,-1743,871,104060,2
83.97570538520813,-587,-1756,771,104069,2
84.01540565490723,-694,-1729,743,103991,2
84.05543613433838,-764,-1763,670,103956,2
84.0954761505127,-752,-1786,656,104028,2
84.13548159599304,-759,-1791,655,104145,2
84.17639446258545,-697,-1784,686,104246,2
84.21444249153137,-675,-1769,724,104368,2
84.25467848777771,-642,-1798,714,104439,2
84.29470562934875,-559,-1881,701,104535,2
84.3343152999878,-506,-1846,774,104586,2
84.37441444396973,-505,-1830,827,104569,2
84.41475057601929,-451,-1803,958,104520,2
84.45448279380798,-466,-1817,1018,104463,2
84.4945330619812,-491,-1821,1006,104064,2
84.53439831733704,-492,-1806,959,103125,2
84.57477903366089,-543,-1784,909,102601,2
84.61472272872925,-560,-1793,872,102340,2
84.65481805801392,-583,-1788,851,102163,2
84.69469714164734,-564,-1779,898,102034,2
84.73440217971802,-640,-1796,833,102074,2
84.77371335029602,-643,-1761,695,102108,2
84.81338167190552,-583,-1765,666,102077,2
84.85367393493652,-585,-1765,703,102069,2
84.89341926574707,-657,-1771,731,102148,2
84.93346858024597,-693,-1756,783,102265,2
84.9733772277832,-710,-1755,820,102386,2
85.01385545730591,-702,-1775,797,102533,2
85.05379796028137,-715,-1757,858,102553,2
85.09330558776855,-702,-1755,887,102560,2
85.13345003128052,-719,-1752,826,102545,2
85.17349195480347,-688,-1736,819,102499,2
85.21349835395813,-670,-1783,822,102337,2
85.2537169456482,-678,-1785,732,101721,2
85.29344034194946,-669,-1755,721,101318,2
85.33405065536499,-695,-1734,760,101142,2
85.37262606620789,-684,-1738,771,101128,2
85.4123260974884,-670,-1771,665,101209,2
85.45279145240784,-634,-1787,584,101354,2
85.4925172328949,-645,-1749,685,101303,2
85.53246140480042,-728,-1754,747,101233,2
85.5724527835846,-750,-1803,713,101282,2
85.61244344711304,-845,-1842,730,101330,2
85.65236306190491,-838,-1812,797,101346,2
85.6924409866333,-734,-1785,781,101434,2
85.73246717453003,-694,-1816,689,101572,2
85.77235865592957,-656,-1828,681,101646,2
85.81261682510376,-631,-1830,674,101776,2
85.85244631767273,-636,-1795,633,102002,2
85.89245748519897,-615,-1779,689,102164,2
85.93151021003723,-587,-1833,683,102046,2
85.97145891189575,-608,-1818,640,101446,2
86.01228499412537,-607,-1772,681,101161,2
86.05149602890015,-569,-1768,749,101099,2
86.09145379066467,-612,-1793,685,101054,2
86.13155364990234,-659,-1790,668,101080,2
86.17148041725159,-626,-1804,752,101063,2
86.21189641952515,-643,-1790,772,101046,2
86.25203013420105,-713,-1796,697,101004,2
86.29160666465759,-697,-1783,766,100952,2
86.3314573764801,-731,-1780,831,100955,2
86.37145900726318,-766,-1833,750,101055,2
86.41148138046265,-760,-1835,667,101139,2
86.45045185089111,-702,-1775,739,101148,2
86.49046611785889,-693,-1783,771,101234,2
86.53047299385071,-651,-1819,676,101424,2
86.57045221328735,-676,-1845,599,101567,2
86.61043930053711,-640,-1820,717,101593,2
86.65050172805786,-685,-1808,802,101561,2
86.69082450866699,-753,-1831,754,101074,2
86.7303581237793,-747,-1834,771,100513,2
86.77052760124207,-761,-1836,753,100253,2
86.8104407787323,-708,-1843,738,100139,2
86.85045027732849,-701,-1857,700,100110,2
86.89052677154541,-658,-1860,676,100150,2
86.93043947219849,-633,-1887,651,100198,2
86.97044086456299,-625,-1885,618,100246,2
87.00947666168213,-610,-1838,598,100281,2
87.04945874214172,-603,-1862,577,100395,2
87.08993911743164,-515,-1885,495,100530,2
87.12951278686523,-454,-1865,483,100553,2
87.16954755783081,-426,-1860,478,100616,2
87.2094476222992,-510,-1852,551,100721,2
87.249440908432,-513,-1915,524,100850,2
87.28950119018555,-497,-1947,517,100900,2
87.32946968078613,-538,-1919,620,100899,2
87.36952710151672,-545,-1890,701,100908,2
87.40944457054138,-578,-1884,734,100917,2
87.44948744773865,-562,-1929,706,100538,2
87.48944449424744,-571,-1921,651,99978,2
87.5293984413147,-591,-1878,590,99756,2
87.56845688819885,-552,-1838,593,99744,2
87.60868215560913,-525,-1840,540,99815,2
87.6485276222229,-574,-1849,449,100013,2
87.68851399421692,-576,-1853,415,100245,2
87.72897696495056,-594,-1850,383,100411,2
87.76846957206726,-671,-1827,342,100597,2
87.80845856666565,-695,-1803,359,100753,2
87.84844040870667,-676,-1812,393,100952,2
87.88844275474548,-754,-1840,400,101121,2
87.9291467666626,-779,-1881,491,101196,2
87.96844959259033,-815,-1852,585,101263,2
88.00849485397339,-839,-1825,717,101283,2
88.04843831062317,-891,-1880,822,101270,2
88.08885550498962,-972,-1922,833,101281,2
88.12745475769043,-1028,-1833,839,101340,2
88.16745257377625,-905,-1800,803,101471,2
88.20744943618774,-744,-1811,690,101296,2
88.24744868278503,-714,-1832,532,100753,2
88.28744840621948,-685,-1798,485,100526,2
88.32745742797852,-707,-1801,585,100494,2
88.3674623966217,-746,-1861,589,100502,2
88.40744924545288,-770,-1953,517,100624,2
88.4474356174469,-739,-1910,471,100721,2
88.48746180534363,-603,-1851,517,100707,2
88.52742838859558,-638,-1796,583,100719,2
88.56745862960815,-691,-1727,611,100822,2
88.6075587272644,-710,-1801,695,100909,2
88.6474359035492,-828,-1896,729,101004,2
88.68647575378418,-808,-1983,605,101183,2
88.72644662857056,-613,-1960,657,101192,2
88.76644110679626,-242,-1936,872,101349,2
88.80643796920776,-273,-2011,637,101831,2
88.84679985046387,-377,-2020,512,102172,2
88.88644123077393,-262,-1911,750,102219,2
88.92698001861572,-140,-1806,973,102151,2
88.96654295921326,-199,-1833,795,101498,2
89.0064218044281,-283,-1842,695,100979,2
89.04645252227783,-444,-1852,755,100928,2
89.08644652366638,-566,-1778,754,101064,2
89.12645292282104,-525,-1779,755,101201,2
89.1664354801178,-541,-1785,740,101342,2
89.20645761489868,-580,-1761,864,101318,2
89.24610829353333,-742,-1710,1050,101152,2
89.28551721572876,-838,-1719,1143,101008,2
89.32546973228455,-884,-1709,1223,100904,2
89.3654637336731,-794,-1757,1202,100887,2
89.40546464920044,-697,-1786,1027,101039,2
89.44603848457336,-659,-1768,904,101243,2
89.48545336723328,-534,-1767,899,101348,2
89.52598166465759,-391,-1734,809,101521,2
89.56546115875244,-358,-1717,689,101732,2
89.60547614097595,-500,-1695,732,101788,2
89.64591360092163,-592,-1688,827,101818,2
89.68579530715942,-623,-1702,863,101860,2
89.7254490852356,-626,-1713,820,101258,2
89.76546502113342,-593,-1702,857,100609,2
89.80443692207336,-629,-1712,911,100397,2
89.8444275856018,-694,-1716,935,100361,2
89.88442492485046,-789,-1712,955,100336,2
89.92442297935486,-833,-1688,992,100404,2
89.96443605422974,-837,-1697,1003,100542,2
90.00456953048706,-800,-1703,949,100569,2
90.04442930221558,-769,-1725,907,100629,2
90.08507370948792,-751,-1706,922,100703,2
90.12445974349976,-764,-1694,909,100872,2
90.16443371772766,-774,-1698,864,101027,2
90.2044289112091,-736,-1718,827,101204,2
90.24445939064026,-678,-1773,759,101367,2
90.28443765640259,-642,-1812,671,101564,2
90.32442378997803,-612,-1811,656,101664,2
90.36344528198242,-590,-1779,708,101715,2
90.40346932411194,-594,-1768,717,101816,2
90.44343638420105,-596,-1751,715,101921,2
90.48344707489014,-564,-1756,749,101938,2
90.5234899520874,-625,-1763,731,101243,2
90.56353378295898,-669,-1785,712,100669,2
90.60349607467651,-732,-1803,764,100515,2
90.6446521282196,-778,-1813,792,100472,2
90.68383622169495,-754,-1817,811,100433,2
90.72377824783325,-705,-1817,820,100439,2
90.7634494304657,-658,-1808,833,100464,2
90.80350065231323,-635,-1773,838,100464,2
90.84349799156189,-622,-1758,835,100539,2
90.8834593296051,-647,-1763,808,100683,2
90.92278027534485,-650,-1761,768,100892,2
90.96263933181763,-678,-1780,722,101131,2
91.00300788879395,-689,-1786,671,101311,2
91.04249572753906,-705,-1771,658,101511,2
91.0824465751648,-735,-1758,658,101735,2
91.12246704101562,-739,-1723,709,101902,2
91.16250514984131,-714,-1753,696,102056,2
91.20244646072388,-706,-1797,649,102254,2
91.24243450164795,-754,-1790,704,102174,2
91.28243327140808,-785,-1778,806,101190,2
91.32244944572449,-831,-1761,828,100521,2
91.36241722106934,-785,-1780,780,100214,2
91.40246391296387,-691,-1783,744,100121,2
91.44242453575134,-714,-1777,695,100192,2
91.48283576965332,-708,-1785,681,100308,2
91.52177119255066,-708,-1774,659,100339,2
91.56158256530762,-736,-1795,640,100307,2
91.60144782066345,-723,-1810,611,100321,2
91.6414577960968,-752,-1805,624,100383,2
91.68146395683289,-744,-1791,679,100417,2
91.72144341468811,-768,-1778,720,100431,2
91.7614734172821,-759,-1777,721,100346,2
91.80157017707825,-745,-1813,694,100313,2
91.84187173843384,-792,-1822,649,100346,2
91.88145232200623,-799,-1808,659,100299,2
91.92144989967346,-763,-1789,721,100290,2
91.96149182319641,-749,-1791,654,100344,2
92.00153374671936,-759,-1812,543,100305,2
92.04167675971985,-763,-1855,514,99567,2
92.08101511001587,-748,-1864,578,98809,2
92.12041878700256,-801,-1886,632,98311,2
92.16044235229492,-867,-1886,710,98000,2
92.20079350471497,-882,-1884,695,97832,2
92.24040269851685,-827,-1967,666,97809,2
92.28050518035889,-719,-1954,563,97952,2
92.32042479515076,-680,-1864,468,98075,2
92.36044645309448,-592,-1794,629,98117,2
92.40043616294861,-564,-1771,700,98248,2
92.44044375419617,-630,-1755,756,98410,2
92.48043465614319,-613,-1804,742,98568,2
92.52042508125305,-613,-1886,700,98689,2
92.56039905548096,-573,-1938,625,98823,2
92.60042905807495,-479,-1913,682,98842,2
92.63944888114929,-291,-1862,853,98811,2
92.67982769012451,-185,-1802,891,98897,2
92.7194881439209,-160,-1750,841,99116,2
92.75943899154663,-112,-1705,838,99378,2
92.80025029182434,-141,-1733,862,99296,2
92.83944535255432,-206,-1780,844,98613,2
92.87943983078003,-329,-1810,843,98130,2
92.91947174072266,-456,-1867,863,97977,2
92.95943355560303,-587,-1874,952,97940,2
92.99946880340576,-680,-1816,971,97951,2
93.03979277610779,-688,-1790,964,98058,2
93.07969164848328,-657,-1796,969,98044,2
93.11991453170776,-651,-1778,943,98047,2
93.15942788124084,-613,-1807,946,98082,2
93.19857859611511,-584,-1796,914,98160,2
93.23851728439331,-570,-1782,878,98199,2
93.27838778495789,-539,-1800,850,98254,2
93.31840229034424,-527,-1757,826,98350,2
93.3584942817688,-494,-1739,797,98489,2
93.39839744567871,-507,-1772,783,98592,2
93.43840408325195,-587,-1792,798,98673,2
93.47839117050171,-603,-1817,759,98717,2
93.51841044425964,-561,-1797,717,98744,2
93.55841064453125,-548,-1801,749,98612,2
93.59861946105957,-534,-1827,745,97940,2
93.63850951194763,-531,-1813,730,96813,2
93.67895436286926,-586,-1832,703,96199,2
93.71840190887451,-609,-1830,696,96140,2
93.75743293762207,-591,-1845,692,96209,2
93.7974796295166,-606,-1843,693,96451,2
93.83757209777832,-615,-1871,637,96739,2
93.8774037361145,-608,-1882,587,96942,2
93.91746830940247,-638,-1907,529,97150,2
93.95749068260193,-659,-1889,528,97329,2
93.99741911888123,-599,-1933,458,97571,2
94.03743529319763,-564,-1931,421,97791,2
94.07743430137634,-647,-1897,428,97969,2
94.11785984039307,-646,-1897,439,98144,2
94.15740823745728,-662,-1867,492,98214,2
94.19749331474304,-679,-1855,600,98188,2
94.23742270469666,-679,-1884,617,98232,2
94.27742838859558,-622,-1922,522,98390,2
94.31779503822327,-561,-1933,518,98428,2
94.35640025138855,-522,-1896,544,97831,2
94.39645886421204,-527,-1864,596,97022,2
94.43652153015137,-604,-1840,631,96737,2
94.47642469406128,-654,-1853,611,96858,2
94.51678657531738,-696,-1883,562,97004,2
94.55643153190613,-681,-1899,515,97200,2
94.59647750854492,-661,-1890,489,97384,2
94.63648986816406,-648,-1871,460,97442,2
94.67651748657227,-634,-1816,497,97553,2
94.71654343605042,-578,-1809,465,97889,2
94.75655817985535,-582,-1846,391,98196,2
94.79654717445374,-726,-1851,442,98317,2
94.83719944953918,-771,-1879,548,98281,2
94.87657856941223,-812,-1877,596,98246,2
94.91556000709534,-851,-1875,604,98194,2
94.95601272583008,-823,-1859,601,98156,2
94.99554824829102,-746,-1837,618,98099,2
95.03559446334839,-705,-1843,634,98115,2
95.0755980014801,-729,-1855,618,97859,2
95.1155457496643,-785,-1839,600,96919,2
95.15588307380676,-809,-1828,662,96194,2
95.19579005241394,-773,-1881,574,96162,2
95.23557496070862,-778,-1869,498,96329,2
95.27553629875183,-743,-1835,519,96419,2
95.31554317474365,-708,-1840,516,96606,2
95.35589051246643,-712,-1845,478,96725,2
95.39566373825073,-711,-1858,473,96770,2
95.43554592132568,-718,-1858,503,96812,2
95.47455501556396,-697,-1860,492,96860,2
95.51455497741699,-690,-1888,457,96947,2
95.5545265674591,-668,-1879,450,97067,2
95.59456062316895,-647,-1871,445,97212,2
95.63457655906677,-601,-1879,437,97342,2
95.67453503608704,-578,-1890,409,97460,2
95.71454787254333,-579,-1882,459,97415,2
95.75453805923462,-609,-1865,598,97249,2
95.79463696479797,-618,-1856,644,97193,2
95.83495306968689,-647,-1880,577,96704,2
95.87453603744507,-689,-1901,520,95921,2
95.91453552246094,-653,-1920,488,95617,2
95.95463681221008,-692,-1914,449,95793,2
95.99453496932983,-708,-1933,433,95980,2
96.03365755081177,-758,-1922,490,96114,2
96.07355618476868,-782,-1912,519,96349,2
96.11355400085449,-787,-1966,536,96521,2
96.15364527702332,-847,-1914,659,96558,2
96.19356894493103,-740,-1930,677,96665,2
96.23352766036987,-639,-1861,671,96873,2
96.27394723892212,-605,-1826,639,97138,2
96.31356978416443,-456,-1835,595,97325,2
96.35355234146118,-328,-1804,638,97430,2
96.39364671707153,-321,-1824,611,97496,2
96.43353390693665,-264,-1954,638,97486,2
96.4735267162323,-80,-1976,720,97443,2
96.51355242729187,-100,-1777,940,97324,2
96.55395674705505,-154,-1748,1055,97246,2
96.5925805568695,-159,-1799,945,96841,2
96.6325352191925,-373,-1880,789,96158,2
96.67324304580688,-566,-1959,641,96039,2
96.71286916732788,-663,-1936,618,96170,2
96.75262069702148,-698,-1888,649,96291,2
96.79254603385925,-667,-1842,638,96478,2
96.83269381523132,-654,-1830,581,96766,2
96.87259268760681,-635,-1842,525,96841,2
96.91252374649048,-672,-1828,585,96801,2
96.95251512527466,-672,-1821,651,96757,2
96.99296164512634,-705,-1823,702,96754,2
97.03252148628235,-679,-1850,718,96732,2
97.07253217697144,-652,-1866,784,96603,2
97.1126229763031,-628,-1872,830,96495,2
97.1525661945343,-586,-1875,820,96451,2
97.19193410873413,-561,-1891,763,96502,2
97.23153042793274,-494,-1883,710,96628,2
97.27153158187866,-423,-1880,678,96561,2
97.31163287162781,-401,-1842,645,95743,2
97.35155320167542,-413,-1819,621,95135,2
97.391521692276,-446,-1825,616,95143,2
97.43151807785034,-508,-1878,622,95217,2
97.47155046463013,-519,-1860,619,95268,2
97.51150751113892,-557,-1852,628,95445,2
97.55160999298096,-528,-1841,643,95471,2
97.59159898757935,-516,-1846,645,95427,2
97.63151144981384,-535,-1854,644,95430,2
97.67164254188538,-549,-1865,696,95460,2
97.71151804924011,-585,-1863,755,95476,2
97.75090956687927,-597,-1866,753,95554,2
97.79060959815979,-599,-1855,748,95597,2
97.8305356502533,-593,-1860,713,95724,2
97.87051796913147,-611,-1864,655,95943,2
97.91060400009155,-611,-1867,629,96099,2
97.95053219795227,-567,-1871,635,96018,2
97.9905138015747,-582,-1845,645,95059,2
98.03051948547363,-564,-1846,675,94321,2
98.07053017616272,-556,-1861,644,94309,2
98.11048746109009,-557,-1874,636,94388,2
98.15052390098572,-528,-1855,656,94424,2
98.19052243232727,-489,-1861,673,94538,2
98.23050546646118,-487,-1863,652,94587,2
98.2706024646759,-488,-1865,610,94537,2
98.31052088737488,-528,-1850,638,94549,2
98.349618434906,-533,-1855,681,94694,2
98.38953018188477,-563,-1866,660,94980,2
98.42952823638916,-595,-1873,660,95138,2
98.47051787376404,-610,-1864,671,95233,2
98.50953483581543,-602,-1868,671,95364,2
98.54953026771545,-570,-1855,664,95479,2
98.58949422836304,-582,-1856,670,95621,2
98.62951517105103,-565,-1861,684,95491,2
98.669513463974,-557,-1855,660,94523,2
98.7096734046936,-569,-1861,641,93782,2
98.74953699111938,-569,-1872,669,93642,2
98.7895154953003,-553,-1859,683,93601,2
98.82955813407898,-553,-1869,659,93684,2
98.87017965316772,-550,-1867,641,93976,2
98.90978145599365,-521,-1860,666,94180,2
98.94848942756653,-538,-1865,634,94322,2
98.98862552642822,-552,-1868,616,94450,2
99.02909231185913,-544,-1871,637,94582,2
99.06862711906433,-556,-1856,652,94727,2
99.10852575302124,-570,-1865,636,94915,2
99.14853024482727,-556,-1868,632,95121,2
99.18859553337097,-548,-1874,646,95273,2
99.22876167297363,-543,-1861,653,95364,2
99.26853132247925,-548,-1865,653,95446,2
99.30849599838257,-550,-1853,646,95556,2
99.348806142807,-546,-1855,649,95657,2
99.38895845413208,-550,-1872,594,94925,2
99.4286036491394,-578,-1869,633,93872,2
99.46851444244385,-585,-1858,704,93544,2
99.50852465629578,-603,-1875,698,93553,2
99.54755783081055,-592,-1894,652,93601,2
99.5875449180603,-539,-1870,636,93780,2
99.62753200531006,-520,-1856,651,94017,2
99.66750311851501,-510,-1866,614,94188,2
99.70754384994507,-541,-1872,592,94267,2
99.74752807617188,-556,-1872,633,94362,2
99.78754258155823,-534,-1866,640,94479,2
99.82752990722656,-545,-1866,622,94610,2
99.86766362190247,-522,-1872,634,94721,2
99.9078426361084,-531,-1863,641,94783,2
99.94753527641296,-534,-1857,619,94895,2
99.98771595954895,-537,-1883,606,94991,2
100.02752637863159,-579,-1874,640,94969,2
100.06751585006714,-581,-1877,674,94942,2
100.10778880119324,-590,-1883,659,95034,2
100.14652919769287,-556,-1872,643,95141,2
100.18651843070984,-520,-1879,654,94932,2
100.2266013622284,-555,-1874,614,93899,2
100.2665376663208,-532,-1875,612,93208,2
100.30653262138367,-546,-1872,650,93110,2
100.34655451774597,-596,-1871,655,93207,2
100.38652181625366,-573,-1879,623,93294,2
100.42656111717224,-554,-1863,618,93510,2
100.46659755706787,-522,-1856,645,93640,2
100.50648999214172,-533,-1864,625,93707,2
100.54654169082642,-582,-1864,602,93798,2
100.58655524253845,-565,-1864,643,93900,2
100.62650084495544,-584,-1868,629,94100,2
100.66697311401367,-597,-1866,624,94289,2
100.70653367042542,-580,-1867,626,94482,2
100.74678635597229,-569,-1863,642,94598,2
100.78555154800415,-553,-1855,645,94738,2
100.82554006576538,-559,-1859,640,94886,2
100.86550045013428,-561,-1854,649,95021,2
100.90569686889648,-576,-1875,641,95150,2
100.9457426071167,-569,-1876,615,95306,2
100.98616337776184,-560,-1868,635,95419,2
101.02556729316711,-559,-1874,625,95535,2
101.06556272506714,-581,-1869,630,95677,2
101.10554361343384,-591,-1867,651,95744,2
101.14570832252502,-573,-1877,631,95177,2
101.18551754951477,-575,-1864,616,94117,2
101.22553253173828,-566,-1866,644,93739,2
101.26552700996399,-583,-1861,665,93837,2
101.30552172660828,-560,-1879,642,93941,2
101.3446900844574,-526,-1882,604,94134,2
101.38462781906128,-541,-1876,623,94315,2
101.42497277259827,-559,-1863,621,94394,2
101.46449160575867,-586,-1865,603,94450,2
101.50482940673828,-577,-1865,617,94539,2
101.5445806980133,-590,-1866,620,94746,2
101.58450603485107,-589,-1861,618,94938,2
101.62477970123291,-579,-1867,640,95082,2
101.66455841064453,-568,-1872,642,95168,2
101.70533537864685,-580,-1872,649,95274,2
101.74465274810791,-562,-1869,643,95440,2
101.78448843955994,-558,-1874,650,95534,2
101.82449173927307,-595,-1866,643,95680,2
101.864572763443,-586,-1879,637,95824,2
101.90350341796875,-584,-1873,622,95974,2
101.9436149597168,-574,-1863,624,96143,2
101.98349738121033,-554,-1872,623,96227,2
102.0235366821289,-583,-1880,619,95500,2
102.06354188919067,-584,-1860,635,94573,2
102.10354018211365,-555,-1866,642,94431,2
102.14353084564209,-560,-1872,640,94620,2
102.18365144729614,-560,-1893,664,94698,2
102.2235381603241,-550,-1866,681,94860,2
102.26355004310608,-511,-1855,642,95045,2
102.30369901657104,-508,-1863,603,95072,2
102.34354877471924,-542,-1864,618,95128,2
102.3835039138794,-572,-1855,610,95300,2
102.4236490726471,-603,-1849,576,95517,2
102.46347975730896,-617,-1851,617,95679,2
102.50251960754395,-603,-1854,631,95803,2
102.54256892204285,-638,-1890,619,95892,2
102.58248710632324,-638,-1885,702,95878,2
102.62301254272461,-526,-1853,716,95982,2
102.66303396224976,-468,-1853,635,96205,2
102.70292615890503,-480,-1858,620,96354,2
102.74300718307495,-531,-1861,664,96432,2
102.78249621391296,-589,-1900,620,96391,2
102.82251596450806,-591,-1917,580,95519,2
102.86317372322083,-582,-1869,644,94737,2
102.90265774726868,-535,-1895,629,94653,2
102.94249725341797,-502,-1897,629,94800,2
102.98250102996826,-500,-1880,636,94897,2
103.02252054214478,-465,-1847,648,95157,2
103.06276249885559,-425,-1864,652,95376,2
103.10151052474976,-506,-1856,652,95389,2
103.14159560203552,-527,-1857,663,95448,2
103.18150424957275,-528,-1847,635,95597,2
103.22199892997742,-524,-1809,648,95772,2
103.26192450523376,-565,-1820,703,95903,2
103.30150747299194,-602,-1853,754,95968,2
103.34196853637695,-662,-1865,769,95971,2
103.38151574134827,-537,-1861,790,95941,2
103.42182970046997,-433,-1847,757,95954,2
103.46172833442688,-429,-1845,735,96078,2
103.50160527229309,-507,-1850,711,96306,2
103.54149174690247,-616,-1892,625,96457,2
103.58151817321777,-688,-1869,580,95797,2
103.62158989906311,-563,-1852,578,95020,2
103.66152286529541,-523,-1946,574,94840,2
103.70049571990967,-702,-2007,516,94978,2
103.74053764343262,-819,-2001,429,95233,2
103.78048157691956,-779,-1959,322,95688,2
103.82060742378235,-674,-1870,281,96022,2
103.86049675941467,-552,-1789,344,96024,2
103.90049314498901,-429,-1802,334,96075,2
103.9410126209259,-465,-1863,232,96308,2
103.98051047325134,-534,-1876,281,96386,2
104.0204963684082,-604,-1919,419,96284,2
104.06088995933533,-667,-1934,518,96106,2
104.1005163192749,-714,-1980,591,95917,2
104.14129447937012,-648,-1981,634,95715,2
104.1805591583252,-592,-1952,682,95625,2
104.22050619125366,-609,-1882,744,95641,2
104.26050305366516,-597,-1886,785,95430,2
104.2995057106018,-629,-1872,754,94564,2
104.33992719650269,-631,-1878,711,94153,2
104.37954092025757,-663,-1892,591,94527,2
104.41950249671936,-673,-1888,478,95057,2
104.45984768867493,-658,-1853,370,95487,2
104.49950361251831,-648,-1821,344,95845,2
104.53950524330139,-687,-1842,413,95876,2
104.57959461212158,-727,-1857,496,95694,2
104.61953949928284,-795,-1882,476,95688,2
104.66000032424927,-745,-1914,439,95765,2
104.69951295852661,-672,-1893,501,95784,2
104.73949098587036,-639,-1900,566,95834,2
104.77952933311462,-581,-1928,528,95963,2
104.81952452659607,-522,-1917,530,96055,2
104.85973596572876,-457,-1905,553,96134,2
104.89850902557373,-409,-1899,549,96182,2
104.93850064277649,-426,-1902,527,96249,2
104.97949290275574,-509,-1917,555,96300,2
105.01852655410767,-511,-1922,642,95974,2
105.0586142539978,-556,-1895,593,95044,2
105.09847021102905,-581,-1885,510,94650,2
105.13852262496948,-592,-1891,482,94753,2
105.1794548034668,-630,-1917,469,94884,2
105.21869850158691,-680,-1897,474,95025,2
105.25905656814575,-699,-1875,503,95156,2
105.29852199554443,-654,-1876,526,95165,2
105.33854556083679,-668,-1858,531,95144,2
105.37851047515869,-653,-1873,531,95183,2
105.41849708557129,-626,-1896,534,95206,2
105.45857906341553,-603,-1887,523,95281,2
105.49747776985168,-589,-1898,509,95342,2
105.53751492500305,-530,-1928,528,95357,2
105.5776014328003,-533,-1883,521,95419,2
105.6175467967987,-564,-1895,552,95467,2
105.65790939331055,-598,-1844,591,95545,2
105.69757676124573,-668,-1878,561,95765,2
105.73751616477966,-678,-1903,551,95873,2
105.77751398086548,-695,-1906,527,95287,2
105.81748557090759,-624,-1889,495,94850,2
105.85751271247864,-582,-1825,525,95050,2
105.8975179195404,-614,-1816,576,95414,2
105.93756222724915,-703,-1894,545,95690,2
105.97749948501587,-649,-1960,445,95969,2
106.01751518249512,-584,-1905,475,96068,2
106.05691647529602,-527,-1848,558,95989,2
106.09651756286621,-530,-1891,554,96090,2
106.13673996925354,-572,-1929,473,96242,2
106.17651057243347,-567,-1928,519,96257,2
106.2165298461914,-514,-1876,570,96274,2
106.25661778450012,-536,-1885,575,96418,2
106.29653596878052,-515,-1875,580,96567,2
106.33669209480286,-540,-1868,575,96714,2
106.37653684616089,-585,-1887,540,96911,2
106.41655111312866,-615,-1895,491,97103,2
106.45653963088989,-635,-1915,531,97052,2
106.49657726287842,-664,-1915,544,96222,2
106.53652596473694,-692,-1899,578,95404,2
106.57651615142822,-633,-1894,583,95279,2
106.61658930778503,-575,-1894,561,95362,2
106.6555290222168,-610,-1854,590,95371,2
106.69665765762329,-669,-1878,590,95481,2
106.73551750183105,-630,-1904,550,95579,2
106.77607560157776,-604,-1910,509,95579,2
106.81553268432617,-573,-1871,550,95535,2
106.8559148311615,-550,-1869,541,95629,2
106.89658427238464,-540,-1871,503,95849,2
106.93552446365356,-536,-1858,511,95936,2
106.97559142112732,-559,-1867,546,96006,2
107.01553273200989,-540,-1874,501,96163,2
107.05554914474487,-550,-1877,527,96179,2
107.09586501121521,-566,-1878,558,96236,2
107.13553643226624,-557,-1885,579,96260,2
107.17552137374878,-583,-1868,580,95712,2
107.21550846099854,-607,-1865,594,94615,2
107.25452446937561,-625,-1881,599,94306,2
107.29451417922974,-645,-1842,607,94527,2
107.33514976501465,-570,-1908,543,94689,2
107.3749942779541,-635,-1897,543,94829,2
107.4146990776062,-641,-1880,602,94898,2
107.4545111656189,-654,-1869,640,94781,2
107.49452304840088,-710,-1873,647,94715,2
107.53455138206482,-666,-1888,578,94924,2
107.57491135597229,-600,-1891,528,95237,2
107.61454725265503,-577,-1902,503,95509,2
107.65454268455505,-549,-1874,535,95610,2
107.69452285766602,-541,-1846,588,95654,2
107.73455429077148,-519,-1924,542,95825,2
107.77455043792725,-601,-1897,470,96006,2
107.81456351280212,-579,-1832,607,95969,2
107.8535361289978,-540,-1878,661,95655,2
107.89376306533813,-668,-1934,542,94765,2
107.93353223800659,-681,-2003,412,94410,2
107.9739146232605,-701,-1935,415,94363,2
108.0135486125946,-577,-1754,586,94139,2
108.05355501174927,-447,-1726,656,94141,2
108.09364485740662,-495,-1787,667,94475,2
108.1336145401001,-638,-1918,594,94737,2
108.17425084114075,-740,-1980,529,94756,2
108.21354365348816,-796,-1929,573,94652,2
108.25354313850403,-647,-1897,626,94655,2
108.2935357093811,-568,-1888,594,94901,2
108.33351945877075,-541,-1873,537,95109,2
108.37353658676147,-519,-1867,525,95259,2
108.41356563568115,-550,-1858,557,95318,2
108.45292663574219,-567,-1885,604,95385,2
108.49254179000854,-634,-1897,630,95557,2
108.53257584571838,-694,-1920,582,95804,2
108.57253789901733,-620,-1893,585,95380,2
108.61261510848999,-588,-1867,559,94729,2
108.65256404876709,-532,-1865,534,94934,2
108.69309139251709,-533,-1836,587,95201,2
108.73254060745239,-586,-1844,572,95281,2
108.77255249023438,-594,-1861,539,95367,2
108.81307172775269,-594,-1867,516,95416,2
108.85254883766174,-599,-1870,500,95279,2
108.89260387420654,-582,-1857,475,95201,2
108.93261241912842,-596,-1828,448,95197,2
108.97256207466125,-723,-1825,538,95222,2
109.01307821273804,-716,-1870,476,95347,2
109.05193328857422,-688,-1862,628,95359,2
109.091552734375,-963,-1939,598,95421,2
109.13157296180725,-1364,-2111,1029,94867,2
109.17156529426575,-1356,-2097,1334,93850,2
109.21165871620178,-887,-2036,1171,94087,2
109.25155282020569,-412,-2305,634,95222,2
109.2916316986084,199,-2192,436,95940,2
109.33154821395874,678,-2079,381,95255,2
109.37220788002014,558,-1874,391,95340,2
109.41160154342651,-409,-1825,108,96276,2
109.45156717300415,-457,-1733,368,96662,2
109.49164867401123,-557,-1708,525,96902,2
109.53162384033203,-413,-1889,530,97090,2
109.57155442237854,-608,-1815,660,97231,2
109.61155247688293,-279,-1877,528,97448,2
109.65055179595947,-206,-1972,560,97868,2
109.6905586719513,-333,-1859,762,97992,2
109.73078489303589,-467,-1933,988,97708,2
109.77060651779175,-478,-2005,1155,97227,2
109.81059145927429,-407,-1901,1311,96702,2
109.85096907615662,-280,-2094,1135,96605,2
109.89059329032898,-351,-2003,864,97152,2
109.93066501617432,136,-2039,388,98409,2
109.9709370136261,-190,-1778,34,100077,2
110.01064491271973,-229,-2011,14,100734,2
110.05057287216187,-427,-2058,467,99690,2
110.09099555015564,-674,-2042,897,97356,2
110.1305685043335,-442,-1981,1072,95714,2
110.17055773735046,-507,-1927,937,95520,2
110.21099042892456,104,-1972,500,96179,2
110.25009202957153,93,-1936,219,97417,2
110.28982901573181,28,-1955,-72,98549,2
110.32989120483398,-280,-2129,296,97966,2
110.36956644058228,-640,-2069,981,96704,2
110.40956807136536,-496,-1910,1366,95874,2
110.44956302642822,-221,-1882,1080,96172,2
110.4895486831665,7,-2044,487,97197,2
110.52979159355164,110,-2013,180,98110,2
110.56993675231934,76,-1970,175,98518,2
110.60954713821411,71,-1961,199,98774,2
110.64954042434692,-3,-2019,124,99176,2
110.68963861465454,-145,-2049,163,99481,2
110.72958993911743,-328,-2073,375,99468,2
110.7695562839508,-540,-2114,669,98412,2
110.80955481529236,-727,-2178,818,96922,2
110.84859919548035,-900,-2183,893,96103,2
110.88879704475403,-909,-2124,854,95825,2
110.92872381210327,-671,-2034,815,95727,2
110.9685606956482,-448,-1972,715,95969,2
111.00868344306946,-261,-1916,611,96225,2
111.04861974716187,-156,-1886,606,96236,2
111.0885660648346,-166,-1897,639,96210,2
111.1285605430603,-205,-2006,581,96236,2
111.16863107681274,-250,-2058,564,96189,2
111.20860838890076,-293,-2018,644,96120,2
111.24857759475708,-239,-2057,682,96056,2
111.28858709335327,-165,-2021,643,96147,2
111.32861709594727,-23,-1966,575,96327,2
111.36893773078918,104,-1885,574,96573,2
111.40853953361511,81,-1772,561,97035,2
111.4485592842102,56,-1817,513,97339,2
111.48763418197632,-31,-1812,663,96982,2
111.52754330635071,-74,-1944,549,96360,2
111.56757473945618,-174,-1977,570,96255,2
111.60795569419861,-349,-1958,707,96283,2
111.64756870269775,-372,-1969,788,96220,2
111.68789076805115,-365,-1933,788,96345,2
111.72761964797974,-383,-1947,737,96594,2
111.76757287979126,-372,-1913,728,96679,2
111.8084819316864,-360,-1850,771,96644,2
111.84761762619019,-323,-1834,788,96624,2
111.88757109642029,-306,-1859,753,96734,2
111.92756652832031,-328,-1875,715,96788,2
111.96797370910645,-338,-1928,752,96791,2
112.00759983062744,-420,-1969,764,96857,2
112.04758524894714,-473,-1988,719,96971,2
112.0866346359253,-431,-1957,677,97148,2
112.12657356262207,-351,-1956,599,97447,2
112.16658020019531,-192,-2022,490,97731,2
112.20665311813354,-137,-2010,426,97435,2
112.24660325050354,-183,-1941,456,96516,2
112.28656673431396,-171,-1851,518,96029,2
112.32664370536804,-166,-1780,575,96070,2
112.36679220199585,-111,-1910,490,96152,2
112.40655970573425,-82,-2139,420,96235,2
112.44695520401001,-174,-2278,373,96396,2
112.486576795578,-399,-2209,254,96543,2
112.52657914161682,-500,-1998,326,96609,2
112.566579580307,-406,-1800,549,96542,2
112.60658359527588,-343,-1703,691,96565,2
112.64657688140869,-312,-1800,664,96679,2
112.68666934967041,-311,-2169,443,96899,2
112.72557473182678,-525,-2246,261,97125,2
112.76565027236938,-704,-2054,387,97128,2
112.80557465553284,-530,-1955,713,96925,2
112.84564542770386,-321,-1913,856,96905,2
112.88597059249878,-308,-1879,848,97025,2
112.92560482025146,-225,-1978,652,96969,2
112.9655830860138,-243,-1983,462,96199,2
113.00559139251709,-237,-1983,347,95827,2
113.04564189910889,-258,-1950,404,95795,2
113.08608555793762,-346,-1918,508,95782,2
113.12595725059509,-375,-1921,497,95830,2
113.16557836532593,-403,-1957,459,96103,2
