Timestamp,AccX,AccY,AccZ,Heart_IR,Phase
0.019828319549560547,-308,28,2040,117774,0
0.05970621109008789,-345,-18,1982,117766,0
0.10021090507507324,-348,2,2030,117408,0
0.1404438018798828,-328,-33,1971,116994,0
0.18041777610778809,-320,-4,2005,116967,0
0.2197732925415039,-283,0,2021,116998,0
0.25970983505249023,-307,-15,2016,116925,0
0.2997584342956543,-312,-4,2057,116930,0
0.34030771255493164,-297,-7,2053,116972,0
0.3797791004180908,-339,5,2021,117047,0
0.418778657913208,-318,1,2008,117090,0
0.4585750102996826,-356,-1,2025,117104,0
0.4986720085144043,-328,6,2008,117136,0
0.5389351844787598,-310,20,2026,117187,0
0.5786511898040771,-317,2,1997,117246,0
0.6187393665313721,-325,4,2021,117333,0
0.6589477062225342,-362,-23,2004,117380,0
0.6987371444702148,-312,25,2034,117445,0
0.7387793064117432,-308,-2,1998,117567,0
0.7776587009429932,-344,17,1994,117732,0
0.8176696300506592,-332,-1,2013,117862,0
0.8578100204467773,-334,1,2010,117936,0
0.8976552486419678,-371,12,2016,117873,0
0.9385755062103271,-358,-5,2002,117688,0
0.9776549339294434,-368,-7,2002,117697,0
1.0176568031311035,-340,-1,2068,117768,0
1.0579030513763428,-318,-17,2034,117797,0
1.0984807014465332,-341,-17,2048,117838,0
1.1382522583007812,-333,-21,2005,117937,0
1.177581787109375,-359,-14,2019,118061,0
1.217040777206421,-358,0,1984,118225,0
1.256744623184204,-377,-26,1969,118354,0
1.2966926097869873,-383,-26,2021,118426,0
1.3369133472442627,-372,-21,2019,118513,0
1.3767144680023193,-354,-9,2042,118545,0
1.416757583618164,-332,-28,2022,118567,0
1.4566740989685059,-353,-33,2012,118592,0
1.4967162609100342,-357,-40,2016,118619,0
1.5367980003356934,-362,-16,2032,118695,0
1.575563669204712,-366,-45,1973,118779,0
1.6157734394073486,-338,-43,2030,118820,0
1.6556692123413086,-354,-35,2042,118846,0
1.6959655284881592,-375,-62,1994,118916,0
1.736309289932251,-330,-33,2025,118949,0
1.775627851486206,-335,-45,2004,118953,0
1.8156578540802002,-337,-30,2006,118733,0
1.8555967807769775,-353,-48,1999,118454,0
1.8956141471862793,-357,-58,2060,118367,0
1.9356801509857178,-363,-75,2020,118366,0
1.9746949672698975,-352,-61,2052,118375,0
2.0145435333251953,-335,-81,1993,118411,0
2.0545566082000732,-336,-55,2046,118506,0
2.0945563316345215,-354,-83,2000,118567,0
2.134526252746582,-347,-62,1989,118592,0
2.1745710372924805,-341,-59,2001,118611,0
2.2146060466766357,-351,-77,2023,118614,0
2.254581928253174,-334,-83,2002,118651,0
2.2944929599761963,-346,-78,2045,118687,0
2.3344531059265137,-318,-81,2020,118719,0
2.3735761642456055,-316,-94,2026,118771,0
2.413466691970825,-293,-78,2020,118809,0
2.453474998474121,-319,-83,2028,118866,0
2.4935903549194336,-316,-62,2019,118935,0
2.5335052013397217,-344,-87,2002,118980,0
2.5734708309173584,-346,-74,2031,118997,0
2.6134660243988037,-335,-95,2016,118968,0
2.6534717082977295,-332,-84,2038,118690,0
2.6935198307037354,-339,-80,2056,118393,0
2.7334394454956055,-316,-85,1999,118281,0
2.773904800415039,-338,-61,2060,118218,0
2.812481641769409,-311,-80,1982,118189,0
2.8524556159973145,-337,-55,2027,118208,0
2.893125057220459,-310,-62,2041,118274,0
2.932471990585327,-318,-52,2029,118337,0
2.972707509994507,-332,-27,2015,118383,0
3.012521266937256,-353,-51,1993,118393,0
3.052520513534546,-333,-34,2028,118405,0
3.092514753341675,-389,-17,1997,118443,0
3.1324851512908936,-345,-31,1987,118455,0
3.17463755607605,-354,7,2057,118496,0
3.2114803791046143,-313,-7,1991,118530,0
3.251538038253784,-306,10,2033,118546,0
3.2916016578674316,-329,23,2061,118577,0
3.352713108062744,-317,-20,1964,118618,0
3.3768420219421387,-332,6,2040,118640,0
3.4122581481933594,-262,-22,2049,118642,0
3.451556921005249,-298,-4,2056,118595,0
3.4914710521698,-269,9,2066,118421,0
3.5319108963012695,-251,4,2001,118076,0
3.5718605518341064,-285,26,1988,117906,0
3.6105406284332275,-265,41,1966,117844,0
3.650542736053467,-271,49,1954,117797,0
3.690478801727295,-267,61,2046,117781,0
3.730466604232788,-270,69,2001,117822,0
3.770902395248413,-318,70,2007,117925,0
3.81071400642395,-300,56,2003,117924,0
3.850457191467285,-286,56,1986,117920,0
3.8905014991760254,-285,68,2067,117941,0
3.9304463863372803,-266,47,2043,117983,0
3.9694783687591553,-246,56,2090,118050,0
4.009749174118042,-274,69,2032,118117,0
4.049498081207275,-256,34,2016,118165,0
4.089515447616577,-237,71,2035,118217,0
4.1294121742248535,-233,48,2019,118264,0
4.169605016708374,-246,69,2008,118280,0
4.2094738483428955,-253,64,2017,118269,0
4.249433755874634,-212,50,2004,118311,0
4.289447546005249,-252,53,2014,118358,0
4.329483509063721,-234,50,2049,118447,0
4.36893105506897,-220,41,2005,118496,0
4.408425569534302,-221,65,2050,118349,0
4.4485182762146,-235,58,2049,118068,0
4.488442659378052,-237,57,2029,117975,0
4.528394460678101,-257,46,2037,117947,0
4.568618297576904,-246,42,2018,117906,0
4.6084747314453125,-221,63,2071,117880,0
4.648428678512573,-221,45,1988,117918,0
4.688437223434448,-236,77,2024,117986,0
4.728487968444824,-234,72,1986,118003,0
4.7680723667144775,-236,78,2013,118040,0
4.807440519332886,-282,69,2019,118091,0
4.847485780715942,-279,54,2021,118160,0
4.887523651123047,-257,50,2030,118260,0
4.927519083023071,-219,72,2091,118313,0
4.967491865158081,-239,37,2000,118406,0
5.007571458816528,-255,69,2079,118440,0
5.047675371170044,-242,42,2007,118448,0
5.087475538253784,-267,68,2035,118518,0
5.1264917850494385,-237,60,2028,118587,0
5.16664719581604,-246,65,2030,118611,0
5.2065370082855225,-259,55,2014,118660,0
5.24644136428833,-266,50,2019,118525,0
5.286437273025513,-230,50,2015,118236,0
5.326457500457764,-240,57,2062,118100,0
5.3664891719818115,-242,32,2024,118001,0
5.4065117835998535,-231,64,2042,117938,0
5.446537494659424,-268,57,2029,117935,0
5.4864723682403564,-252,46,2017,118036,0
5.525444507598877,-247,47,2039,118114,0
5.565434694290161,-267,52,2027,118185,0
5.6055707931518555,-240,70,2025,118221,0
5.645487070083618,-255,67,2019,118277,0
5.6854448318481445,-271,57,2027,118342,0
5.725493907928467,-262,51,2025,118348,0
5.765458583831787,-255,54,2023,118377,0
5.805499792098999,-254,69,2031,118402,0
5.845470905303955,-253,51,2035,118454,0
5.884456396102905,-251,48,2008,118510,0
5.92445707321167,-229,63,2030,118564,0
5.96453857421875,-242,52,2009,118627,0
6.004528999328613,-254,64,2039,118688,0
6.044596195220947,-262,44,2010,118734,0
6.084446668624878,-254,54,2043,118764,0
6.1244964599609375,-248,40,2007,118598,0
6.164447546005249,-251,66,2020,118264,0
6.20449686050415,-257,66,2027,118100,0
6.243585109710693,-260,72,2042,118038,0
6.283459901809692,-242,44,2052,117968,0
6.323438405990601,-262,54,2060,117956,0
6.36348819732666,-266,52,2048,117992,0
6.403507947921753,-266,73,2017,118068,0
6.443467378616333,-268,59,2019,118088,0
6.483458995819092,-249,68,1995,118078,0
6.523449897766113,-264,61,2026,118095,0
6.563461780548096,-266,28,2011,118145,0
6.603488922119141,-269,59,2044,118193,0
6.642492294311523,-225,50,2002,118232,0
6.682475328445435,-252,78,2041,118258,0
6.722495794296265,-251,58,2042,118301,0
6.762449741363525,-224,49,2022,118326,0
6.802544832229614,-277,65,2030,118329,0
6.842471122741699,-271,48,2012,118313,0
6.882500410079956,-281,70,1984,118299,0
6.922506332397461,-235,44,1990,118309,0
6.962473392486572,-259,40,1989,118123,0
7.001498699188232,-258,65,2046,117886,0
7.041473865509033,-256,37,2000,117823,0
7.081507921218872,-237,46,2056,117790,0
7.121517658233643,-235,51,2078,117755,0
7.161465406417847,-223,41,2024,117781,0
7.201899290084839,-253,49,2030,117809,0
7.241511583328247,-269,48,2030,117829,0
7.281522274017334,-283,37,1997,117828,0
7.321507692337036,-263,63,2026,117829,0
7.361454010009766,-263,64,2027,117861,0
7.40054988861084,-266,58,2043,117906,0
7.4404966831207275,-272,43,2060,117942,0
7.480484962463379,-270,62,2045,117981,0
7.520616769790649,-242,54,2011,118019,0
7.560463905334473,-262,58,2040,118035,0
7.6009204387664795,-269,40,2033,118067,0
7.64047384262085,-250,37,2014,118046,0
7.680516958236694,-263,65,1983,118044,0
7.7205188274383545,-238,53,2011,117992,0
7.759450197219849,-265,68,2013,117754,0
7.799508571624756,-257,64,2043,117619,0
7.839490652084351,-267,50,2029,117579,0
7.879479646682739,-257,70,2060,117548,0
7.919528484344482,-221,55,2040,117543,0
7.959501504898071,-241,71,2045,117510,0
7.999644041061401,-241,87,1878,117520,0
8.039528131484985,-269,141,1957,117554,0
8.079478740692139,-283,119,2061,117555,0
8.119516372680664,-331,56,2049,117625,0
8.158517837524414,-340,41,2071,117678,0
8.198984146118164,-323,19,2053,117735,0
8.238664150238037,-306,51,2124,117802,0
8.27845573425293,-214,53,2032,117838,0
8.31848955154419,-211,77,2027,117866,0
8.358463048934937,-222,72,1988,117896,0
8.398582220077515,-244,95,1988,117894,0
8.438491582870483,-256,89,1991,117919,0
8.478513479232788,-289,78,2012,117983,0
8.517528772354126,-296,89,2048,118049,0
8.557533502578735,-284,83,2027,117963,0
8.598424196243286,-257,104,2009,117676,0
8.63752031326294,-273,90,2012,117585,0
8.677461862564087,-277,89,2008,117557,0
8.717498064041138,-232,91,2026,117518,0
8.757530689239502,-238,101,2057,117480,0
8.797661304473877,-242,98,2035,117481,0
8.837497472763062,-290,91,2004,117569,0
8.877479076385498,-295,87,1975,117627,0
8.916493654251099,-272,113,2048,117687,0
8.956434488296509,-240,59,2044,117749,0
8.996671676635742,-271,61,2053,117832,0
9.036489248275757,-255,59,2041,117922,0
9.076499223709106,-243,37,2015,117987,0
9.11650037765503,-257,46,2051,118027,0
9.156485319137573,-206,62,2089,118036,0
9.196471691131592,-217,51,2014,118092,0
9.236562490463257,-255,81,2049,118158,0
9.27550458908081,-279,37,1978,118219,0
9.31551218032837,-239,54,2002,118270,0
9.355535507202148,-215,69,2033,118323,0
9.39549207687378,-238,46,1993,118361,0
9.435591459274292,-218,57,2036,118294,0
9.475481271743774,-219,57,2019,117946,0
9.515501260757446,-234,46,2016,117707,0
9.555691003799438,-255,58,2073,117624,0
9.595482349395752,-237,36,2034,117595,0
9.63551115989685,-204,48,2080,117600,0
9.674477815628052,-221,29,2035,117642,0
9.714545488357544,-203,43,2028,117742,0
9.754519939422607,-218,46,2015,117819,0
9.794491291046143,-234,36,1968,117854,0
9.8345046043396,-240,45,2027,117873,0
9.874555826187134,-216,17,2054,117876,0
9.914494514465332,-203,29,2042,117908,0
9.954644918441772,-186,35,2035,117917,0
9.994529724121094,-193,-11,2028,117917,0
10.033565759658813,-211,21,2025,117979,0
10.073686361312866,-243,12,2028,118026,0
10.11349105834961,-218,9,2060,118109,0
10.153501033782959,-166,34,2058,118184,0
10.193689346313477,-195,22,2002,118240,0
10.233501672744751,-215,27,2020,118253,0
10.273515462875366,-239,31,2039,117996,0
10.313671588897705,-209,20,2009,117735,0
10.353528499603271,-227,32,2050,117683,0
10.392690896987915,-224,30,2039,117677,0
10.432716131210327,-205,24,2045,117650,0
10.472645998001099,-196,44,2050,117678,0
10.512520551681519,-220,29,1991,117762,0
10.552488327026367,-228,39,2024,117868,0
10.592515230178833,-218,9,2043,117914,0
10.632534503936768,-198,17,2020,117907,0
10.672778367996216,-226,27,2010,117937,0
10.712555170059204,-207,37,2033,117962,0
10.752552032470703,-222,12,2034,118022,0
10.79170274734497,-213,29,2069,118081,0
10.831599473953247,-218,26,2030,118135,0
10.871625185012817,-232,31,2039,118204,0
10.911500692367554,-225,22,1995,118275,0
10.951510429382324,-219,35,2012,118326,0
10.991472005844116,-238,23,2031,118371,0
11.031539916992188,-235,11,2067,118379,0
11.071704626083374,-214,12,2056,118408,0
11.111509323120117,-225,31,2039,118448,0
11.150583267211914,-207,21,2016,118514,0
11.190532922744751,-211,29,2037,118474,0
11.231666326522827,-214,26,2020,118141,0
11.270545721054077,-246,22,2064,117929,0
11.310509204864502,-242,9,2045,117889,0
11.350526809692383,-245,21,2033,117831,0
11.390504598617554,-194,34,2028,117786,0
11.430958271026611,-203,29,2022,117750,0
11.470550775527954,-235,32,2025,117805,0
11.510498285293579,-257,12,2031,117866,0
11.549538850784302,-226,16,2012,117901,0
11.589701890945435,-205,32,2012,117907,0
11.629555225372314,-217,25,1981,117939,0
11.669548273086548,-256,34,2105,117943,0
11.70973801612854,-175,-40,2010,117972,0
11.749540090560913,-215,43,2095,117994,0
11.789685487747192,-192,-5,2049,117983,0
11.829669713973999,-228,13,1992,118014,0
11.869559526443481,-221,29,2038,118076,0
11.908679008483887,-210,-3,1966,118140,0
11.948629140853882,-224,39,2029,118185,0
11.988525152206421,-205,4,2027,118131,0
12.029116868972778,-247,28,2036,118147,0
12.068516492843628,-209,24,2046,118195,0
12.108560800552368,-219,19,2028,118047,0
12.148558139801025,-219,37,2049,117687,0
12.189079999923706,-221,17,2026,117530,0
12.22854208946228,-239,9,2026,117499,0
12.267519235610962,-227,34,2036,117515,0
12.307589769363403,-232,-1,2040,117544,0
12.347511768341064,-221,45,2060,117606,0
12.387534379959106,-222,17,2027,117654,0
12.427788972854614,-245,24,2020,117671,0
12.467507362365723,-229,48,2028,117647,0
12.507522583007812,-223,12,1980,117584,0
12.547805070877075,-214,51,2004,117442,0
12.587585687637329,-219,16,2059,117461,0
12.627530097961426,-239,10,2050,117547,0
12.666504383087158,-201,22,2053,117569,0
12.706547737121582,-220,-9,1989,117617,0
12.746570110321045,-239,33,2083,117667,0
12.786540031433105,-244,-15,2015,117719,0
12.826680183410645,-242,31,2037,117755,0
12.866917371749878,-237,22,2038,117765,0
12.906567811965942,-237,-9,2003,117810,0
12.946570873260498,-226,19,2048,117940,0
12.986545085906982,-229,25,2054,118026,0
13.026438236236572,-209,6,2009,118063,0
13.065575122833252,-226,17,2020,117985,0
13.105573415756226,-245,19,2008,117821,0
13.145572185516357,-230,32,2054,117772,0
13.185571432113647,-223,-3,2037,117749,0
13.225578784942627,-233,24,2019,117709,0
13.265546798706055,-236,20,2050,117660,0
13.305614471435547,-223,15,2021,117668,0
13.345584154129028,-256,32,2050,117721,0
13.384538173675537,-220,-13,2020,117789,0
13.424556255340576,-245,25,1987,117838,0
13.498104810714722,-214,34,2040,117870,0
13.504565715789795,-276,19,2019,117916,0
13.544539451599121,-247,24,2072,117940,0
13.584603548049927,-221,22,2040,117938,0
13.624529361724854,-214,15,2027,117930,0
13.664570808410645,-219,20,2019,117927,0
13.704583883285522,-235,26,2023,117918,0
13.744540214538574,-244,9,2032,117947,0
13.783776760101318,-252,35,2038,117980,0
13.823801040649414,-221,29,2012,117997,0
13.863555908203125,-218,25,2010,118026,0
13.903573989868164,-217,9,2056,118029,0
13.943518877029419,-227,9,2064,118025,0
13.983510732650757,-216,3,2018,118038,0
14.023897409439087,-212,14,2005,118030,0
14.063816547393799,-229,7,2018,118033,0
14.103866577148438,-242,6,2010,117934,0
14.142578363418579,-256,26,2030,117791,0
14.183347702026367,-253,-2,2059,117769,0
14.222617149353027,-237,11,2060,117782,0
14.262613534927368,-223,37,2058,117742,0
14.30256962776184,-215,10,2021,117753,0
14.342581033706665,-244,27,2047,117762,0
14.382532596588135,-251,1,1994,117776,0
14.422587871551514,-235,33,2036,117779,0
14.462594270706177,-239,-2,1981,117800,0
14.501520156860352,-256,34,2031,117847,0
14.541554927825928,-231,19,2012,117900,0
14.581546545028687,-232,18,2039,117942,0
14.621590852737427,-229,14,2069,118000,0
14.661567211151123,-231,33,2042,118050,0
14.701528549194336,-217,9,2040,118047,0
14.74159288406372,-268,16,2008,118029,0
14.781602621078491,-269,34,2024,118040,0
14.821553945541382,-236,17,2008,118058,0
14.861613273620605,-237,42,2049,118115,0
14.901190042495728,-231,22,2059,118142,0
14.940537214279175,-245,14,2037,118174,0
14.98056435585022,-239,16,2030,118208,0
15.020553350448608,-248,24,2008,118254,0
15.060595035552979,-209,-9,2001,118261,0
15.100584983825684,-251,17,2039,118047,0
15.140658617019653,-222,10,1997,117871,0
15.180574655532837,-260,19,2057,117856,0
15.220543146133423,-230,6,2031,117879,0
15.259593725204468,-233,12,2044,117879,0
15.29958963394165,-228,28,2055,117890,0
15.33958387374878,-240,2,2027,117948,0
15.37955117225647,-270,6,2024,117997,0
15.41954779624939,-254,11,2014,118027,0
15.459638357162476,-248,18,2038,118035,0
15.499542236328125,-237,-3,2030,118029,0
15.53960132598877,-258,10,2030,118047,0
15.579581022262573,-228,3,2053,118070,0
15.619656324386597,-239,8,2017,118105,0
15.658586025238037,-258,18,2057,118150,0
15.698602676391602,-247,2,2025,118190,0
15.738598585128784,-250,24,2027,118238,0
15.778595924377441,-254,12,1997,118294,0
15.818654298782349,-263,14,2026,118335,0
15.858632326126099,-237,0,2038,118334,0
15.898595809936523,-240,-6,2004,118337,0
15.938610792160034,-244,18,2071,118334,0
15.978586673736572,-214,-24,1992,118336,0
16.017600297927856,-251,8,2031,118177,0
16.057641983032227,-254,10,2049,118010,0
16.097599983215332,-252,-7,2028,117998,0
16.13755512237549,-255,13,2058,117992,0
16.17757225036621,-231,5,2017,117978,0
16.21756887435913,-257,11,2047,117957,0
16.257984161376953,-283,-1,2015,117956,0
16.297621250152588,-249,-16,2018,117984,0
16.337599515914917,-249,4,2028,118021,0
16.376611709594727,-243,14,2033,118038,0
16.416578769683838,-244,-4,2019,118081,0
16.45687460899353,-242,-1,2044,118126,0
16.496638774871826,-247,-18,2043,118148,0
16.536601066589355,-235,2,2039,118205,0
16.576626300811768,-236,18,2022,118205,0
16.616567850112915,-248,3,2011,118181,0
16.657026767730713,-243,5,2029,118194,0
16.696568489074707,-235,-1,2028,118199,0
16.735541343688965,-256,7,2024,118282,0
16.775603771209717,-240,26,2038,118329,0
16.81562638282776,-217,2,2049,118368,0
16.855979681015015,-236,-1,2035,118421,0
16.895594835281372,-224,7,2049,118435,0
16.93560028076172,-253,-14,2004,118367,0
16.975619792938232,-237,11,2042,118147,0
17.01555323600769,-240,1,2016,118019,0
17.055662870407104,-222,16,2045,117996,0
17.095675945281982,-261,11,2053,117984,0
17.13463068008423,-215,-17,1994,117993,0
17.174606800079346,-252,27,2045,118027,0
17.214528799057007,-241,-3,1976,118085,0
17.254613161087036,-239,22,2054,118123,0
17.294658184051514,-236,-7,1999,118113,0
17.33556342124939,-270,4,2019,118098,0
17.37455701828003,-248,-7,2008,118085,0
17.414596557617188,-231,3,2026,118102,0
17.454614877700806,-220,-9,2057,118128,0
17.493586540222168,-215,-6,2047,118157,0
17.53404188156128,-241,6,2039,118198,0
17.57360816001892,-235,9,2025,118219,0
17.61418890953064,-248,2,2005,118245,0
17.654045581817627,-259,9,2025,118277,0
17.693573713302612,-258,0,2048,118275,0
17.733611345291138,-223,-3,2034,118260,0
17.773577451705933,-238,10,2020,118261,0
17.81397795677185,-230,-17,2010,118163,0
17.85296893119812,-254,8,2040,118036,0
17.892608880996704,-239,-7,2024,117987,0
17.932595252990723,-238,-1,2044,117989,0
17.97258734703064,-230,-4,2029,117989,0
18.012565851211548,-216,6,2026,117981,0
18.05255627632141,-258,6,2021,117994,0
18.092575550079346,-253,-7,2043,118016,0
18.132631540298462,-251,-23,2016,118010,0
18.172627687454224,-235,14,2007,117999,0
18.21265459060669,-236,12,2017,118029,0
18.251779317855835,-244,5,2025,118070,0
18.29227590560913,-234,-6,2050,118102,0
18.331615209579468,-231,13,2046,118137,0
18.3716082572937,-235,5,2023,118169,0
18.41162085533142,-246,4,2028,118213,0
18.45157027244568,-275,8,2045,118206,0
18.49159598350525,-287,4,2039,118195,0
18.531721830368042,-266,10,2032,118188,0
18.571605682373047,-242,6,2016,118185,0
18.61158776283264,-230,-6,2013,118209,0
18.65055203437805,-225,-6,2027,118205,0
18.69060182571411,-253,37,2074,118173,0
18.730576753616333,-240,-10,2042,118197,0
18.770674467086792,-270,8,2034,118078,0
18.811426877975464,-284,15,2030,117951,0
18.850594520568848,-266,12,2015,117904,0
18.890612363815308,-250,11,2026,117864,0
18.930647611618042,-228,23,2073,117830,0
18.970596313476562,-238,-9,2020,117855,0
19.009615421295166,-274,40,2048,117916,0
19.04959511756897,-260,-13,1985,117991,0
19.089606761932373,-273,25,2036,118017,0
19.12975263595581,-224,26,2031,118043,0
19.169578313827515,-251,0,2013,118072,0
19.209591150283813,-236,29,2037,118094,0
19.249637842178345,-231,7,2018,118103,0
19.289599657058716,-224,24,2041,118100,0
19.329623460769653,-239,7,2026,118082,0
19.369627952575684,-246,36,2033,118119,0
19.4086275100708,-247,12,1984,118150,0
19.44863486289978,-276,45,2023,118193,0
19.48863959312439,-253,34,2027,118249,0
19.528647899627686,-260,30,2057,118270,0
19.568620204925537,-265,29,2004,118312,0
19.608652114868164,-236,18,1991,118305,0
19.648606538772583,-234,10,2054,118159,0
19.688642263412476,-243,15,2028,117996,0
19.72860860824585,-241,31,2032,117925,0
19.768601894378662,-238,31,2052,117917,0
19.807738542556763,-250,10,2026,117903,0
19.847609043121338,-269,30,2038,117904,0
19.88758420944214,-237,19,2043,117947,0
19.92766571044922,-261,28,2037,117969,0
19.96758794784546,-275,27,2020,117988,0
20.007615327835083,-266,30,2009,117978,1
20.047603845596313,-286,23,2014,117953,1
20.087839365005493,-266,19,2034,117970,1
20.127676486968994,-207,28,2079,117983,1
20.16661238670349,-247,20,2022,118012,1
20.20666217803955,-250,37,2023,118025,1
20.2467303276062,-270,19,2056,118036,1
20.28673481941223,-305,-20,2071,118061,1
20.32658839225769,-315,-1,2078,118065,1
20.36685299873352,-292,206,2063,118074,1
20.406643629074097,-239,372,1979,118025,1
20.44663405418396,-190,593,1910,118010,1
20.486804962158203,-151,779,1929,117998,1
20.526649713516235,69,1065,1938,117880,1
20.565643072128296,20,1193,1778,117812,1
20.60561990737915,-192,1269,2033,117900,1
20.645622730255127,-785,1426,2435,117960,1
20.686209201812744,423,1935,2346,118103,1
20.725720643997192,195,1469,2358,118274,1
20.76563549041748,110,-1418,835,118344,1
20.80566906929016,79,-3726,2194,118159,1
20.84565830230713,-381,-3103,3497,118084,1
20.885640144348145,-944,-1890,3822,118082,1
20.925681829452515,484,-2305,2528,117956,1
20.964651346206665,78,-1554,1597,117893,1
21.004602432250977,259,-544,1836,117803,1
21.04463219642639,-72,-55,2009,117798,1
21.084815979003906,-190,619,1294,117761,1
21.124591588974,100,947,1693,117802,1
21.164626121520996,-85,873,1288,117852,1
21.204663515090942,152,1063,1742,117992,1
21.24460458755493,178,1021,2090,118090,1
21.28462553024292,-104,1082,1967,118217,1
21.32366156578064,-723,877,2252,118329,1
21.36366558074951,-102,918,2492,118397,1
21.4036865234375,-665,814,2753,118262,1
21.44364023208618,-751,507,1914,118111,1
21.483702182769775,-463,471,2021,118064,1
21.523768424987793,-503,258,1901,117972,1
21.56373381614685,-449,121,1723,117917,1
21.603976488113403,-429,151,1940,117859,1
21.643844842910767,-302,110,1936,117821,1
21.683661460876465,-211,236,1982,117910,1
21.722673892974854,-124,293,2036,117941,1
21.76263737678528,-386,224,1956,117976,1
21.80268430709839,-369,269,2105,118008,1
21.84265661239624,-485,120,2091,118058,1
21.882706880569458,-318,238,2006,118063,1
21.922665119171143,-186,358,1741,118039,1
21.962681770324707,-374,876,1833,117984,1
22.002751350402832,-772,1958,2223,117976,1
22.04268169403076,-239,2506,1924,117905,1
22.082646369934082,-176,2250,1336,118047,1
22.121668338775635,365,2555,2074,118211,1
22.161663055419922,288,1852,1107,118366,1
22.201730251312256,-131,-76,1522,118348,1
22.241697788238525,-724,-1439,3242,118061,1
22.28165555000305,359,-3238,1280,117737,1
22.32166624069214,-787,-3523,2882,117761,1
22.361689567565918,-345,-2381,4056,117636,1
22.40163826942444,-450,-2674,2733,117578,1
22.441730260849,275,-2601,2465,117500,1
22.481627225875854,234,-1567,1861,117393,1
22.520634651184082,-167,39,1483,117395,1
22.560657739639282,266,932,1337,117409,1
22.600648164749146,-294,1991,1509,117621,1
22.6406831741333,890,2073,2236,117810,1
22.680639266967773,-98,1918,1906,117856,1
22.72062921524048,290,1556,1886,118005,1
22.76156759262085,-630,1266,2189,118073,1
22.80066990852356,-790,580,2025,118066,1
22.840689659118652,-832,374,1933,118104,1
22.880714893341064,-550,175,1961,118158,1
22.919692516326904,-393,171,1827,118220,1
22.9596951007843,-327,211,1819,118247,1
22.999671697616577,-173,192,2086,118121,1
23.040873289108276,-372,392,2103,117906,1
23.07975673675537,-413,843,2027,117795,1
23.11963677406311,-698,1215,2000,117687,1
23.15971875190735,-1144,1999,2402,117649,1
23.199685096740723,-435,2402,2196,117533,1
23.23968529701233,308,3131,1110,117544,1
23.278898000717163,259,3390,1268,117910,1
23.318679332733154,-31,1600,1350,118152,1
23.358653783798218,-962,-2208,1388,118376,1
23.398707628250122,-1225,-5881,3328,118270,1
23.438710927963257,-1220,-4230,3394,118028,1
23.507955312728882,-617,-3117,2318,117828,1
23.530754804611206,74,-3223,2223,117657,1
23.558729887008667,-390,-2491,2223,117414,1
23.598703145980835,-115,-912,1890,117224,1
23.638670921325684,85,334,1166,117195,1
23.67779850959778,-252,2250,1801,117409,1
23.717633724212646,430,3215,1745,117794,1
23.757648706436157,1863,3728,1792,117844,1
23.797650575637817,-1120,3186,964,117557,1
23.837677001953125,-2723,3716,3467,117569,1
23.877671003341675,-1608,3349,3302,117495,1
23.917933702468872,-219,2864,1144,117423,1
23.95770502090454,307,2613,1528,117817,1
23.997639417648315,707,-714,1318,118051,1
24.03779697418213,321,-6527,1731,118438,1
24.076701164245605,-2644,-5559,7058,118982,1
24.116689443588257,-719,-5369,4177,118741,1
24.157123565673828,727,-4474,1025,118281,1
24.197479009628296,602,-855,1156,117798,1
24.236745595932007,1026,2602,629,117363,1
24.27672266960144,-1811,5711,1718,117574,1
24.317687511444092,-975,6254,3150,117868,1
24.356708526611328,1899,3750,1437,118126,1
24.397738218307495,615,2634,2162,118427,1
24.4356689453125,1725,1636,2093,118682,1
24.475683450698853,130,-2019,1807,119124,1
24.515819311141968,-15,-4150,3216,119456,1
24.555726051330566,-1259,-5770,2865,119213,1
24.59568190574646,-515,-4140,3228,118594,1
24.63571262359619,-73,-2779,1163,118077,1
24.675659656524658,289,-404,855,117782,1
24.716267108917236,-451,1451,1547,117627,1
24.755697011947632,-168,2957,517,117618,1
24.795688152313232,-534,5783,1039,117980,1
24.834741830825806,1232,3631,1269,118185,1
24.87466311454773,-1269,3294,3020,118324,1
24.91567897796631,403,2437,1951,118506,1
24.95465922355652,-1321,753,2005,118715,1
24.994702339172363,181,-29,2547,118708,1
25.03472638130188,-997,-3088,1778,118981,1
25.07467269897461,360,-3462,3732,118993,1
25.11472725868225,-515,-3954,3602,118599,1
25.154719591140747,-138,-3060,3265,118233,1
25.194689512252808,-123,-2682,2184,118033,1
25.23372220993042,-90,-1000,1323,117846,1
25.273706197738647,-52,290,1244,117678,1
25.313769817352295,-41,1389,1242,117541,1
25.353675365447998,-722,3032,1596,117633,1
25.393714904785156,618,4017,1199,117867,1
25.433725118637085,2609,2958,-17,117874,1
25.473673820495605,-1836,2935,2386,117878,1
25.513735055923462,-356,2635,2647,118076,1
25.55366277694702,-740,1131,1130,118075,1
25.593665599822998,-636,903,2026,118197,1
25.63273334503174,-382,-589,1783,118139,1
25.672658920288086,94,-593,1776,118348,1
25.71287775039673,-346,-1142,2800,118493,1
25.752696990966797,94,-972,2307,118443,1
25.792714595794678,-248,-1056,2602,118459,1
25.832724809646606,-152,-502,2162,118401,1
25.87272071838379,-76,-468,2033,118346,1
25.912819623947144,23,-41,2094,118325,1
25.95265769958496,150,-232,1724,118374,1
25.991745233535767,-96,-448,2245,118485,1
26.031717538833618,-418,-727,2541,118543,1
26.071728229522705,-389,-1153,2662,118438,1
26.111682176589966,-596,-1309,2718,118266,1
26.151744604110718,-141,-1455,1921,118133,1
26.1916663646698,111,-697,1965,118092,1
26.231707096099854,91,-484,1881,118051,1
26.271658897399902,-333,146,1427,118040,1
26.31169581413269,-354,387,1726,118072,1
26.351688146591187,-220,960,1621,118065,1
26.390707969665527,-36,1630,2217,118190,1
26.43066692352295,624,1927,1545,118182,1
26.47066593170166,812,2446,1194,118248,1
26.510883331298828,-332,1770,1644,118253,1
26.55078101158142,-1335,1915,2771,118309,1
26.590710163116455,-690,1905,2382,118299,1
26.6306791305542,-232,1886,1911,118336,1
26.670732736587524,80,1836,2099,118229,1
26.710808753967285,28,913,1301,118263,1
26.75070023536682,-5,636,2255,118523,1
26.789710998535156,-248,-365,1732,118580,1
26.82974624633789,450,-1501,1858,118445,1
26.869733572006226,-359,-2378,2492,118289,1
26.910059213638306,-223,-1903,2739,118213,1
26.949774980545044,-871,-1054,3270,118219,1
26.989715814590454,-327,-1339,2800,118282,1
27.03002953529358,-417,-1464,2606,118271,1
27.069737434387207,212,-1376,1956,118206,1
27.109736680984497,22,-642,1819,118138,1
27.14867091178894,200,-150,1803,118118,1
27.1886785030365,369,315,1364,118088,1
27.228744506835938,63,747,1745,118144,1
27.268726110458374,279,1135,1556,118183,1
27.30870294570923,105,1520,1807,118286,1
27.34867238998413,315,1847,1903,118388,1
27.388681650161743,313,1843,1519,118449,1
27.428686380386353,-9,1812,1816,118530,1
27.468830347061157,-1300,1680,2250,118610,1
27.50868821144104,-723,1755,2229,118733,1
27.547748565673828,-226,1750,2073,118803,1
27.587762594223022,-73,1609,1590,118614,1
27.62773370742798,-225,1204,1566,118491,1
27.66767954826355,70,1208,2226,118462,1
27.707653284072876,-99,-127,1338,118502,1
27.747833967208862,193,-227,2564,118597,1
27.787750005722046,83,-1509,1940,118556,1
27.82775592803955,-59,-2552,1809,118619,1
27.867957592010498,-451,-1933,3031,118650,1
27.90781545639038,-544,-2024,2771,118598,1
27.946779251098633,-600,-1898,2763,118469,1
27.986737728118896,-76,-2076,1977,118367,1
28.026763677597046,379,-1111,1797,118331,1
28.066727876663208,-63,-563,1882,118284,1
28.107555866241455,-23,325,1184,118431,1
28.146958589553833,373,826,1625,118515,1
28.186740159988403,-64,1390,1868,118553,1
28.226757526397705,145,1970,1673,118583,1
28.266700744628906,560,2436,1351,118530,1
28.30670428276062,-129,2533,1973,118350,1
28.34592056274414,-2006,2199,2921,118367,1
28.385698795318604,-1211,2013,2905,118444,1
28.425747871398926,-295,1773,1965,118434,1
28.46571969985962,-175,1797,1769,118598,1
28.505747079849243,388,1325,1641,118788,1
28.545897006988525,-786,93,1792,119052,1
28.585713386535645,407,26,2203,119148,1
28.625715017318726,-267,-1917,1121,119400,1
28.665720462799072,349,-2312,2612,119640,1
28.704756259918213,-486,-2168,2062,119718,1
28.74502944946289,57,-1647,2702,119730,1
28.784743070602417,-261,-1305,2769,119685,1
28.824703454971313,-153,-1569,1887,119609,1
28.86469054222107,225,-1360,2026,119547,1
28.90466284751892,142,-966,1761,119479,1
28.944748640060425,181,-535,2057,119501,1
28.98472762107849,12,-411,1502,119497,1
29.02475333213806,-276,164,1750,119629,1
29.064743518829346,172,417,1479,119684,1
29.103673934936523,-248,1437,2172,119731,1
29.144286394119263,238,1833,2197,119694,1
29.183820962905884,-79,2152,1748,119639,1
29.223757028579712,-1233,2666,2650,119641,1
29.263764142990112,-1842,2232,2391,119666,1
29.304004192352295,-996,2281,2650,119703,1
29.34372091293335,-381,2222,2007,119602,1
29.383837938308716,-207,1474,1162,119656,1
29.423713445663452,76,862,1955,119687,1
29.4637291431427,-739,-844,1891,119713,1
29.502716541290283,196,-1026,2332,119918,1
29.542744636535645,-196,-2171,1696,119986,1
29.58276128768921,152,-1686,2568,120019,1
29.62272834777832,-168,-1575,2582,119924,1
29.66275715827942,-397,-1430,2784,119735,1
29.70277738571167,-225,-1362,2261,119565,1
29.742836713790894,-7,-1310,2204,119393,1
29.782764434814453,80,-617,1904,119276,1
29.822754621505737,-91,-469,1776,119173,1
29.861679077148438,-538,149,1830,119236,1
29.901752471923828,-136,453,1521,119207,1
29.941694259643555,-361,1115,1816,119306,1
29.981723070144653,-362,1831,2121,119425,1
30.022886753082275,960,1645,1899,119403,1
30.06174659729004,275,1830,1805,119223,1
30.101752281188965,-1357,1722,1899,119051,1
30.14172887802124,-1966,1845,2503,119068,1
30.18174719810486,-1251,1936,2492,119034,1
30.2217378616333,-663,1458,1719,119113,1
30.260733604431152,-364,1760,2299,119165,1
30.30073380470276,-157,921,1204,119258,1
30.340805530548096,-149,703,2559,119511,1
30.380765676498413,-363,-651,1797,119503,1
30.420841932296753,-114,-1280,1828,119653,1
30.46073842048645,-93,-2200,1763,119736,1
30.50073003768921,-214,-2529,2341,119826,1
30.540729761123657,-306,-2129,2858,119716,1
30.58077597618103,-388,-2089,2353,119482,1
30.620728969573975,-115,-1851,1922,119286,1
30.659843683242798,195,-1083,1891,119214,1
30.699723958969116,253,-363,1469,119280,1
30.740073442459106,51,96,1764,119337,1
30.779778480529785,-153,426,1266,119377,1
30.81972098350525,-396,1007,2037,119421,1
30.85969567298889,19,1271,1975,119353,1
30.899797439575195,-176,1472,2028,119378,1
30.939741373062134,-520,1825,1849,119367,1
30.979798078536987,-469,2070,1952,119387,1
31.01875877380371,-1019,2110,2595,119472,1
31.058788061141968,-1195,1766,2080,119482,1
31.09873604774475,-420,1828,1922,119544,1
31.13871192932129,-285,1528,1765,119447,1
31.178777933120728,118,1499,1651,119413,1
31.218857526779175,-138,766,2042,119550,1
31.258774518966675,-14,-143,2090,119465,1
31.298749685287476,-909,-914,2282,119610,1
31.33871841430664,730,-1917,1847,119469,1
31.379051685333252,-884,-2076,2117,119621,1
31.417779684066772,-246,-1541,2998,119557,1
31.457758903503418,-863,-1362,2578,119568,1
31.497742176055908,-148,-1339,2448,119514,1
31.537780046463013,-252,-1268,2109,119277,1
31.578158378601074,-158,-984,1576,118932,1
31.617778062820435,-443,-138,2010,118858,1
31.657745838165283,-3,-172,1525,118822,1
31.69784951210022,-357,469,2252,118777,1
31.73773694038391,135,879,1758,118741,1
31.77674889564514,-325,871,1777,118841,1
31.81676197052002,-286,1495,1967,118918,1
31.856794834136963,-166,1786,1917,119107,1
31.8967866897583,-399,2029,2310,119261,1
31.936777353286743,-1308,1585,2718,119374,1
31.977073431015015,-1157,1419,2744,119365,1
32.016804695129395,-633,1404,2077,119244,1
32.05677533149719,-487,1395,1811,119245,1
32.09677839279175,-520,1175,2308,119342,1
32.13669180870056,-203,606,1686,119445,1
32.17585897445679,102,457,1980,119633,1
32.215731620788574,-116,-104,1886,119669,1
32.2557737827301,-386,-1467,1222,119812,1
32.296704053878784,-617,-1177,2829,119709,1
32.33577537536621,161,-2096,1351,119583,1
32.3760290145874,-675,-1184,3435,119239,1
32.41574168205261,-479,-1565,2344,119030,1
32.45575141906738,-353,-1273,2348,118963,1
32.495798110961914,-289,-1097,2257,118889,1
32.534764766693115,-158,-787,1901,118871,1
32.574692726135254,-338,-336,2118,118861,1
32.614771604537964,-78,-136,1291,118880,1
32.65477919578552,-422,447,1639,118939,1
32.69487714767456,243,1172,2058,119016,1
32.734787940979004,14,1161,1847,119135,1
32.774986267089844,-342,1847,2289,119209,1
32.81486248970032,216,1792,1619,119230,1
32.854718923568726,369,1864,1698,119182,1
32.89479207992554,-882,1758,1990,119155,1
32.93377995491028,-1030,1803,1959,119146,1
32.974764347076416,-373,1716,1490,119191,1
33.01385259628296,-352,1597,1810,119264,1
33.05384135246277,184,1263,1797,119331,1
33.09383797645569,-497,735,2184,119418,1
33.133795976638794,139,233,2335,119522,1
33.174643993377686,-838,-574,1721,119691,1
33.21382236480713,568,-1060,2123,119399,1
33.25380825996399,-840,-1867,1924,119274,1
33.29398703575134,63,-1565,3391,119022,1
33.332998514175415,-1127,-1190,2904,118973,1
33.37286448478699,-650,-1366,2304,119023,1
33.41282320022583,-103,-1489,2248,119030,1
33.452818632125854,-339,-1087,1707,118913,1
33.492807388305664,-139,-944,2015,118799,1
33.532795906066895,-276,-281,1516,118681,1
33.572736501693726,-7,133,1649,118613,1
33.61318874359131,69,931,1482,118657,1
33.652825117111206,41,1372,2000,118842,1
33.69178128242493,-30,1968,2404,119003,1
33.731764793395996,-97,2398,1769,119052,1
33.77178454399109,-679,2401,1424,119236,1
33.81189680099487,-372,2049,2299,119326,1
33.85181427001953,-514,1842,2112,119204,1
33.891772508621216,-164,1597,1432,119075,1
33.93181347846985,-482,1650,1858,118909,1
33.971951484680176,82,1357,1507,118742,1
34.011762857437134,-794,472,2433,118743,1
34.051804304122925,-520,364,3075,118785,1
34.09080719947815,-321,-777,1486,118801,1
34.13079905509949,-663,-1253,2035,118897,1
34.17075490951538,-144,-1909,1717,119030,1
34.210821866989136,-1023,-1435,2676,119072,1
34.25084376335144,-693,-1315,2997,119050,1
34.290849685668945,-599,-1430,2354,118980,1
34.33080434799194,-223,-1406,2176,118869,1
34.37077260017395,-48,-1201,2023,118812,1
34.41079354286194,-645,-242,1854,118844,1
34.450822591781616,-105,16,1467,118900,1
34.48977875709534,-375,865,1618,118966,1
34.52976417541504,-59,1079,1885,119084,1
34.56980919837952,-152,1260,1851,119270,1
34.609798192977905,-136,1516,1982,119331,1
34.649813413619995,170,2018,1918,119418,1
34.68981695175171,-271,2111,2486,119409,1
34.72978711128235,-862,1763,2826,119368,1
34.769774198532104,-471,1568,2555,119199,1
34.810224771499634,-149,1223,1753,119078,1
34.84989404678345,-847,791,2432,119086,1
34.888779640197754,-5,790,2407,119072,1
34.928773403167725,-632,354,2243,119061,1
34.96879053115845,59,-118,2123,119156,1
35.00883364677429,-362,-467,1985,119275,1
35.048826694488525,476,-1961,1419,119492,1
35.08894991874695,-702,-1986,1993,119474,1
35.128923416137695,-294,-1897,2804,119466,1
35.16881227493286,-378,-1356,2767,119426,1
35.20916724205017,432,-1443,2148,119351,1
35.24884748458862,-63,-1288,2084,119330,1
35.28779935836792,227,-923,1994,119294,1
35.32783222198486,18,-635,1565,119291,1
35.36776876449585,-97,-95,1540,119299,1
35.407803773880005,106,639,1541,119342,1
35.44782376289368,-177,1081,1870,119373,1
35.48780560493469,-68,1434,1885,119399,1
35.52775740623474,-70,1974,2161,119343,1
35.56779599189758,-890,1559,1874,119320,1
35.60789775848389,-861,1670,2796,119249,1
35.6477689743042,-979,1655,2835,119091,1
35.68676447868347,-374,1511,1974,119056,1
35.72679162025452,-275,1645,2165,119028,1
35.76680779457092,-332,1463,1577,118746,1
35.807475328445435,-464,1035,1777,118777,1
35.8467743396759,-243,941,2431,118933,1
35.88681983947754,-132,-735,1381,119171,1
35.926844120025635,-773,-438,3296,119337,1
35.966789960861206,462,-1924,1109,119236,1
36.00680446624756,-911,-1297,2920,119153,1
36.046982288360596,-349,-1608,2194,119107,1
36.085816383361816,-265,-1203,2973,119092,1
36.125932931900024,-299,-1223,2657,119138,1
36.1658296585083,-5,-1393,1805,119207,1
36.20608401298523,60,-1249,2173,119308,1
36.24577879905701,-7,-562,1743,119359,1
36.28587007522583,-205,-289,1523,119365,1
36.32579469680786,-183,300,1715,119410,1
36.36579871177673,-155,689,1696,119254,1
36.405841588974,-324,1008,1563,119238,1
36.445794343948364,-500,1669,1879,119260,1
36.48480749130249,-109,2502,1801,119221,1
36.524799823760986,-418,2435,1824,119239,1
36.56500458717346,-349,2053,2376,119228,1
36.60496735572815,-780,1649,2395,119255,1
36.644797801971436,-593,1359,1836,119257,1
36.68480157852173,-931,1145,1955,119268,1
36.72481107711792,-445,1194,2000,119221,1
36.764809131622314,-193,1028,1864,119205,1
36.804752826690674,99,553,1538,119304,1
36.84477686882019,-387,107,2407,119292,1
36.883790493011475,-49,-617,1799,119281,1
36.92393136024475,-315,-1473,1565,119343,1
36.96380662918091,-44,-1605,2218,119479,1
37.003931760787964,-400,-1595,3129,119484,1
37.043824195861816,-520,-1201,3235,119468,1
37.083794593811035,-305,-1423,3149,119479,1
37.1239697933197,126,-1900,2399,119337,1
37.163827896118164,-255,-1629,1750,119033,1
37.203794717788696,-79,-642,1321,118905,1
37.24381470680237,-163,-100,1174,118912,1
37.282772064208984,-116,526,1247,118955,1
37.32282042503357,-357,1187,1729,119049,1
37.36279797554016,-20,1538,1735,119086,1
37.40330410003662,-385,2316,2053,119073,1
37.44292426109314,166,2650,1894,119126,1
37.48306369781494,-792,2282,2342,119167,1
37.522820711135864,-1185,1685,2573,119173,1
37.56280732154846,-780,1623,2294,119049,1
37.602826833724976,-836,1065,1602,119003,1
37.6428964138031,-482,1520,2195,119066,1
37.681803464889526,-245,547,1634,119109,1
37.72179651260376,-206,371,2160,119305,1
37.761780738830566,-523,-65,2307,119425,1
37.80184316635132,116,-806,1320,119499,1
37.84191393852234,-307,-632,1856,119559,1
37.88182282447815,56,-1676,1436,119619,1
37.92214608192444,-455,-1440,2387,119619,1
37.961875677108765,-464,-1451,2760,119652,1
38.00180721282959,-461,-1262,2936,119612,1
38.04188346862793,-73,-1773,2093,119425,1
38.08196473121643,-124,-1469,1993,119052,1
38.12086057662964,-162,-672,1881,118931,1
38.16081166267395,373,-330,1939,118848,1
38.200833559036255,-881,66,1757,118785,1
38.24081039428711,-462,695,1632,118865,1
38.28088665008545,311,1270,1893,118977,1
38.320842266082764,-179,2222,1876,118995,1
38.360878467559814,-180,2311,1556,119012,1
38.400800466537476,-729,2303,2033,119115,1
38.44092559814453,-734,1806,2854,119161,1
38.48088312149048,-702,1725,2262,119166,1
38.519893169403076,-238,1519,2021,119216,1
38.55984401702881,-852,1305,2058,119180,1
38.59982967376709,-327,1032,1919,119236,1
38.63987851142883,-1023,745,2717,119312,1
38.679850578308105,258,155,2081,119266,1
38.719855070114136,-1106,-170,2263,119472,1
38.75989651679993,436,-385,2377,119318,1
38.79983425140381,-487,-1212,643,119212,1
38.84023642539978,-48,-1209,2231,118755,1
38.87997508049011,-779,-1584,1715,118552,1
38.918816566467285,-361,-845,3068,118540,1
38.95887756347656,-437,-1044,2770,118574,1
38.998825788497925,-62,-1451,2315,118598,1
39.03900122642517,-287,-1669,1965,118587,1
39.078848361968994,-265,-671,1755,118541,1
39.11881494522095,126,-446,1802,118469,1
39.15880608558655,-389,156,1683,118497,1
39.198798418045044,-630,784,2002,118503,1
39.23884201049805,-141,1352,1857,118523,1
39.278878927230835,-38,1783,2284,118533,1
39.31882905960083,-736,2215,1947,118504,1
39.357866287231445,-598,2228,2020,118559,1
39.39779567718506,-790,1778,2108,118574,1
39.438536405563354,-713,1485,2094,118600,1
39.47785401344299,-487,1503,2146,118652,1
39.517897605895996,-213,1347,1734,118649,1
39.55795359611511,-564,1257,2085,118728,1
39.59786868095398,-750,836,2770,118800,1
39.637924909591675,-335,196,1821,118792,1
39.6778461933136,-758,-189,2178,118739,1
39.71792697906494,-275,49,2490,118658,1
39.756911516189575,-96,-867,1688,118698,1
39.79682636260986,-471,-211,2175,118692,1
39.836915493011475,-165,-750,1708,118724,1
39.8768630027771,-222,-101,1854,118814,1
39.91689705848694,-133,-201,2007,118935,1
39.956950187683105,-83,5,1862,119015,1
39.99680519104004,-275,139,2264,119066,1
40.037209033966064,-187,97,1840,119117,2
40.07678723335266,-8,203,2235,119111,2
40.11681866645813,-326,193,1932,119113,2
40.156128883361816,-263,163,1927,119181,2
40.19591569900513,-211,167,2179,119235,2
40.23607659339905,-279,135,2013,119290,2
40.275898456573486,-345,207,2109,119325,2
40.315783739089966,-99,250,2046,119371,2
40.356260538101196,-181,181,2010,119361,2
40.39608454704285,-219,168,2102,119350,2
40.43607473373413,-213,175,2014,119312,2
40.47597813606262,-168,178,1975,119191,2
40.515851974487305,-114,194,2075,119075,2
40.55485224723816,-154,171,1997,118972,2
40.594879150390625,-197,209,2031,118904,2
40.63487982749939,-126,160,2065,118858,2
40.674901723861694,-255,199,2085,118878,2
40.71485090255737,-206,144,2021,118908,2
40.7548348903656,-188,205,2017,118912,2
40.79481911659241,-195,146,1971,118915,2
40.8348388671875,-219,163,2042,118898,2
40.87486982345581,-177,139,2007,118891,2
40.91509747505188,-192,175,2106,118901,2
40.9548761844635,-206,145,2055,118907,2
40.99386954307556,-224,158,2016,118927,2
41.03400206565857,-111,145,2017,118932,2
41.073872089385986,-235,199,1942,118942,2
41.11383891105652,-173,157,1998,118947,2
41.15383529663086,-198,170,2108,118954,2
41.19384288787842,-257,146,1956,118931,2
41.23387384414673,-190,157,2068,118734,2
41.273823261260986,-215,186,2063,118458,2
41.31382703781128,-248,145,1963,118305,2
41.3538773059845,-171,142,2074,118235,2
41.39282178878784,-249,177,2124,118230,2
41.43283033370972,-226,134,1967,118257,2
41.47286891937256,-243,169,2034,118330,2
41.51292943954468,-208,160,2033,118386,2
41.552850008010864,-254,144,1970,118442,2
41.59283185005188,-250,153,1992,118484,2
41.63291907310486,-220,163,2090,118516,2
41.672884464263916,-253,162,2039,118525,2
41.71287965774536,-293,165,2058,118571,2
41.75292158126831,-179,181,2095,118602,2
41.7918267250061,-265,171,2012,118643,2
41.83181929588318,-193,194,2032,118632,2
41.87185573577881,-204,179,2019,118616,2
41.91182327270508,-248,155,1933,118663,2
41.95182514190674,-282,172,2029,118724,2
41.99195384979248,-212,170,2015,118758,2
42.0318398475647,-241,155,1985,118724,2
42.07210946083069,-277,181,1956,118721,2
42.112947940826416,-145,163,2030,118627,2
42.1518816947937,-251,167,1994,118403,2
42.1916561126709,-225,186,2041,118287,2
42.23084592819214,-184,196,2099,118185,2
42.27091717720032,-260,169,2013,118146,2
42.3109610080719,-236,160,2073,118126,2
42.350858211517334,-248,173,2030,118162,2
42.39082598686218,-226,175,2086,118174,2
42.430826902389526,-250,159,2005,118161,2
42.4712438583374,-215,186,2008,118160,2
42.51086139678955,-219,185,2031,118161,2
42.54984188079834,-244,183,1998,118154,2
42.58983755111694,-260,182,2041,118176,2
42.62982892990112,-205,187,2054,118209,2
42.66989350318909,-259,182,1994,118263,2
42.70988726615906,-206,185,2022,118349,2
42.74987554550171,-251,180,2010,118396,2
42.789835691452026,-233,179,2055,118426,2
42.82984018325806,-219,176,2039,118426,2
42.869869232177734,-266,175,1972,118465,2
42.90985178947449,-186,214,2070,118522,2
42.948859214782715,-243,202,2013,118550,2
42.98886060714722,-186,192,1991,118547,2
43.02883529663086,-293,178,1945,118562,2
43.06955695152283,-282,187,1981,118488,2
43.108880043029785,-244,185,2038,118261,2
43.148892402648926,-241,184,2028,118165,2
43.18890023231506,-277,168,2008,118113,2
43.22884249687195,-217,193,2028,118093,2
43.26923656463623,-221,168,2042,118097,2
43.308897733688354,-289,174,2023,118177,2
43.34787130355835,-231,186,2068,118208,2
43.38784575462341,-234,174,2025,118244,2
43.42785906791687,-301,157,2001,118292,2
43.46823596954346,-208,190,2065,118336,2
43.50784420967102,-235,183,2032,118394,2
43.54784893989563,-270,180,1979,118431,2
43.58794617652893,-187,186,2058,118413,2
43.62786364555359,-233,192,1999,118431,2
43.6679904460907,-258,169,1976,118444,2
43.70790410041809,-195,208,2044,118486,2
43.74684000015259,-276,158,1962,118547,2
43.786845207214355,-234,178,2034,118608,2
43.826836824417114,-241,186,2035,118648,2
43.866945028305054,-239,169,1987,118662,2
43.90690732002258,-240,188,1979,118695,2
43.94768285751343,-196,185,1965,118554,2
43.98697876930237,-220,157,1980,118291,2
44.026981830596924,-197,162,1939,118165,2
44.066859006881714,-212,87,1804,118102,2
44.10588026046753,-242,97,1762,118093,2
44.145939350128174,-203,30,1724,118091,2
44.18589973449707,-137,103,1762,118155,2
44.225839614868164,-151,37,1961,118186,2
44.26645588874817,-239,54,1803,118217,2
44.30586576461792,-378,17,2036,118240,2
44.34595322608948,-138,30,2233,118226,2
44.38592982292175,-351,44,2064,118255,2
44.425893783569336,-387,-18,2042,118258,2
44.46586990356445,-231,78,2196,118291,2
44.50491189956665,-389,11,1983,118326,2
44.54488921165466,-343,63,1972,118344,2
44.5848433971405,-273,52,2085,118330,2
44.62486672401428,-234,147,1877,118359,2
44.6648485660553,-119,159,2011,118401,2
44.70489168167114,-205,244,2034,118456,2
44.74485754966736,-315,119,1938,118490,2
44.784892082214355,-293,161,1965,118541,2
44.82490158081055,-176,164,2252,118616,2
44.86489653587341,-254,140,2087,118604,2
44.90393662452698,-468,62,2104,118438,2
44.94395732879639,-457,58,2131,118227,2
44.983946323394775,-347,50,2030,118172,2
45.024296283721924,-292,67,2201,118113,2
45.063923597335815,-245,54,1991,118093,2
45.103840589523315,-242,31,2109,118149,2
45.14384627342224,-268,31,1963,118254,2
45.18391966819763,-289,-24,1987,118342,2
45.223888635635376,-214,6,2144,118345,2
45.262933015823364,-268,1,2020,118336,2
45.30283570289612,-367,41,2183,118345,2
45.34294509887695,-298,32,2157,118373,2
45.382888317108154,-306,93,2039,118417,2
45.4228937625885,-225,57,2166,118429,2
45.46291255950928,-202,34,1999,118382,2
45.50308084487915,-224,30,1935,118332,2
45.54289364814758,-239,-28,1947,118318,2
45.58289909362793,-289,25,1998,118340,2
45.62296175956726,-269,-13,2020,118397,2
45.66192388534546,-162,61,2081,118485,2
45.701871156692505,-146,66,2099,118529,2
45.74187970161438,-269,82,2182,118569,2
45.78189706802368,-209,99,2007,118637,2
45.82191181182861,-143,55,2178,118686,2
45.86185050010681,-127,77,2130,118523,2
45.9027624130249,-141,54,2147,118338,2
45.94189453125,-196,98,2096,118245,2
45.98186635971069,-189,76,1961,118218,2
46.0218608379364,-132,80,2109,118229,2
46.06083607673645,-136,81,2012,118287,2
46.10091233253479,-95,97,1975,118390,2
46.14085578918457,-109,65,2139,118452,2
46.18091917037964,-128,108,2008,118494,2
46.220876932144165,-123,132,2076,118552,2
46.26088523864746,-114,94,2042,118562,2
46.30103039741516,-194,83,2049,118543,2
46.34088325500488,-207,81,2022,118534,2
46.380871057510376,-170,81,2023,118518,2
46.42086744308472,-181,66,2023,118550,2
46.45986008644104,-157,82,2060,118579,2
46.5003125667572,-151,81,1984,118627,2
46.53991103172302,-172,60,2055,118699,2
46.57992362976074,-175,68,2010,118711,2
46.619911909103394,-176,67,2051,118697,2
46.65985631942749,-173,56,2073,118695,2
46.69989824295044,-154,44,2043,118568,2
46.739890336990356,-161,41,2016,118392,2
46.77989053726196,-152,24,1994,118306,2
46.819876194000244,-171,34,2091,118306,2
46.858837842941284,-162,21,2039,118291,2
46.89912438392639,-195,5,2006,118291,2
46.93892741203308,-214,20,2058,118307,2
46.978893756866455,-132,4,2001,118297,2
47.01892280578613,-215,-7,2013,118283,2
47.0589337348938,-211,-20,2180,118235,2
47.098965644836426,-165,-24,1954,118215,2
47.13893532752991,-254,-15,2098,118232,2
47.17891001701355,-181,9,2007,118210,2
47.21796154975891,-177,-13,2003,118245,2
47.25788378715515,-218,-13,2054,118242,2
47.298019886016846,-181,-7,1970,118264,2
47.33795523643494,-201,-19,2054,118312,2
47.377906799316406,-218,-5,2049,118311,2
47.41787767410278,-202,-5,2027,118318,2
47.45789837837219,-203,-3,2054,118304,2
47.49791431427002,-211,-12,2024,118271,2
47.5378999710083,-194,-2,2063,118270,2
47.57794666290283,-205,-8,2043,118295,2
47.61708402633667,-196,-18,2043,118281,2
47.656909227371216,-210,-10,2037,118140,2
47.6971549987793,-204,-18,2029,118095,2
47.7368905544281,-209,-16,2011,118088,2
47.77688646316528,-193,-25,2000,118094,2
47.8169105052948,-201,-20,2059,118088,2
47.85783267021179,-179,-16,2050,118052,2
47.896894454956055,-195,-28,2020,118057,2
47.936944246292114,-212,-15,2008,118047,2
47.97691512107849,-225,-15,2030,118052,2
48.01593255996704,-228,-10,2057,118057,2
48.0559344291687,-226,-10,2066,118084,2
48.09588837623596,-232,-14,2050,118103,2
48.135992765426636,-209,-16,2052,118139,2
48.17589473724365,-230,-20,2034,118139,2
48.215916872024536,-249,-12,2020,118134,2
48.2566134929657,-216,-17,2026,118137,2
48.29589533805847,-249,-22,2075,118175,2
48.33593463897705,-208,-12,1994,118210,2
48.375981092453,-217,-16,2046,118258,2
48.41490936279297,-212,-17,2033,118309,2
48.45488405227661,-244,-20,2052,118363,2
48.49489212036133,-226,-29,2054,118418,2
48.53491806983948,-199,-20,2010,118441,2
48.574899435043335,-217,-39,2066,118436,2
48.61493253707886,-203,-28,2003,118304,2
48.65495228767395,-232,-34,2009,118128,2
48.69490838050842,-201,-26,2019,118068,2
48.73489737510681,-194,-16,2071,118045,2
48.77493333816528,-212,-15,2021,118054,2
48.81389665603638,-230,-16,2023,118069,2
48.85394263267517,-188,-44,2048,118113,2
48.89391756057739,-235,-29,2058,118170,2
48.93392205238342,-198,-16,2061,118193,2
48.9739785194397,-157,-41,2025,118187,2
49.01394438743591,-235,-31,2030,118183,2
49.05388617515564,-229,-29,2068,118180,2
49.09391808509827,-199,-37,2026,118162,2
49.13431215286255,-222,-38,1998,118188,2
49.17294931411743,-197,-49,2092,118194,2
49.212923526763916,-189,-40,2046,118189,2
49.25294637680054,-223,-34,2011,118223,2
49.29292130470276,-185,-39,2022,118264,2
49.332935094833374,-191,-32,2050,118299,2
49.37351608276367,-193,-27,2032,118319,2
49.412933588027954,-193,-31,2005,118331,2
49.45291709899902,-214,-37,2063,118340,2
49.49290919303894,-173,-35,2017,118285,2
49.53339338302612,-196,-19,2032,118162,2
49.57190012931824,-239,-17,2029,118114,2
49.611950159072876,-187,-17,2060,118096,2
49.651923179626465,-163,-15,2036,118106,2
49.69194197654724,-214,-21,2054,118093,2
49.73230528831482,-200,-27,2037,118126,2
49.77193903923035,-208,-33,2025,118132,2
49.81196689605713,-199,-11,2093,118104,2
49.8519332408905,-211,-7,2016,118098,2
49.8919563293457,-204,-21,2054,118082,2
49.93268322944641,-227,-10,2030,118131,2
49.97095203399658,-201,-18,2006,118179,2
50.010958194732666,-208,-9,2046,118223,2
50.051000356674194,-196,-20,2032,118265,2
50.090935468673706,-180,-4,2041,118303,2
50.131067514419556,-207,-12,2065,118332,2
50.17154264450073,-197,-12,2069,118339,2
50.21097493171692,-200,-13,2026,118312,2
50.250940799713135,-181,-8,2029,118298,2
50.290956020355225,-210,-12,2057,118308,2
50.33121371269226,-204,0,2036,118318,2
50.369953632354736,-182,0,2020,118327,2
50.40994310379028,-217,-21,2054,118368,2
50.44994115829468,-235,-17,2024,118343,2
50.489951372146606,-202,-17,2014,118191,2
50.52997899055481,-187,-10,2009,118112,2
50.56996178627014,-206,-3,2035,118069,2
50.60995554924011,-202,-3,2050,117986,2
50.649967193603516,-192,-16,2027,117939,2
50.68992495536804,-215,-5,2046,117917,2
50.72919249534607,-188,-17,2053,117962,2
50.768972635269165,-182,0,2050,117987,2
50.80897569656372,-186,-4,2053,118003,2
50.848952293395996,-188,-10,2015,118011,2
50.88888478279114,-214,-17,2031,118019,2
50.929035902023315,-186,-14,2048,118025,2
50.96896958351135,-202,-14,2041,117994,2
51.00894355773926,-165,-19,2024,117974,2
51.048972368240356,-169,-16,2045,117942,2
51.08946204185486,-162,-15,2074,117944,2
51.12807035446167,-150,-28,1991,117966,2
51.16825246810913,-160,-18,2036,118005,2
51.208935260772705,-158,-29,2015,118016,2
51.247960805892944,-177,-27,2041,118051,2
51.287941455841064,-152,-25,2076,118072,2
51.32791304588318,-174,-17,2055,118057,2
51.368022441864014,-177,9,2032,118049,2
51.40794086456299,-173,-7,2065,118021,2
51.448914527893066,-202,-3,2016,117883,2
51.48792266845703,-213,-1,2028,117753,2
51.526925563812256,-191,-4,2072,117721,2
51.56702518463135,-179,-11,2054,117689,2
51.60701894760132,-185,-22,2023,117654,2
51.64706349372864,-180,-14,2042,117652,2
51.686936140060425,-193,-15,2035,117678,2
51.727001428604126,-176,-20,2035,117693,2
51.76701307296753,-181,-4,2043,117666,2
51.80699968338013,-165,-24,2050,117632,2
51.847005128860474,-194,-25,2003,117649,2
51.88697409629822,-183,-21,2036,117670,2
51.92677593231201,-175,-21,2064,117721,2
51.96600675582886,-175,-25,2047,117760,2
52.006030321121216,-160,-27,2047,117773,2
52.046265602111816,-146,-22,2037,117804,2
52.086002588272095,-187,-21,2038,117814,2
52.12607717514038,-191,-34,2015,117813,2
52.16698718070984,-147,-21,2037,117801,2
52.20594501495361,-217,-28,2024,117792,2
52.24598574638367,-181,-26,2043,117821,2
52.28600835800171,-174,-19,2064,117836,2
52.32503390312195,-220,4,2059,117873,2
52.365017890930176,-229,-28,2080,117885,2
52.40493559837341,-191,-60,2013,117918,2
52.4449348449707,-156,-74,1933,117940,2
52.485196590423584,-172,-21,1923,117858,2
52.525201082229614,-201,2,2063,117680,2
52.56494188308716,-222,2,2097,117595,2
52.60493612289429,-253,-7,2226,117557,2
52.64498829841614,-202,-16,2102,117549,2
52.68527889251709,-179,-16,1983,117547,2
52.72392535209656,-137,-21,1927,117576,2
52.76398062705994,-157,-23,2008,117613,2
52.804128646850586,-240,-15,2051,117656,2
52.84397792816162,-256,-33,2078,117655,2
52.883948802948,-221,-42,2036,117678,2
52.92417001724243,-189,-32,1991,117687,2
52.96431255340576,-192,-26,2002,117687,2
53.00457787513733,-181,-20,2003,117703,2
53.04398012161255,-207,-36,2064,117755,2
53.08294177055359,-201,-19,2089,117802,2
53.123098850250244,-164,-8,2045,117818,2
53.163047552108765,-189,-14,2070,117851,2
53.20298385620117,-208,-9,2028,117857,2
53.24299120903015,-190,8,2043,117899,2
53.2829270362854,-147,-6,2070,117873,2
53.322935581207275,-198,-6,2048,117860,2
53.36313462257385,-237,-14,2049,117848,2
53.403239011764526,-194,-11,2050,117828,2
53.44299244880676,-191,15,2026,117854,2
53.48198103904724,-185,-1,2039,117871,2
53.521936893463135,-209,0,1994,117772,2
53.561970472335815,-206,7,2018,117639,2
53.60195183753967,-232,2,2077,117624,2
53.64193296432495,-240,-3,2055,117663,2
53.681976318359375,-158,2,1981,117644,2
53.72193717956543,-190,-7,2035,117612,2
53.76207184791565,-215,-4,1998,117593,2
53.801939249038696,-169,18,2028,117594,2
53.841938495635986,-180,8,2054,117634,2
53.88092541694641,-163,2,2047,117649,2
53.92093849182129,-195,1,2031,117677,2
53.96138596534729,-161,11,2074,117722,2
54.00097346305847,-165,19,2034,117725,2
54.040982723236084,-181,27,2045,117765,2
54.08098292350769,-160,35,2067,117754,2
54.12093949317932,-171,35,2051,117736,2
54.16113567352295,-186,29,2016,117730,2
54.20096278190613,-207,31,2039,117728,2
54.24095892906189,-207,25,2010,117764,2
54.27996325492859,-215,15,2016,117801,2
54.31999063491821,-206,21,2010,117839,2
54.35996460914612,-183,40,2018,117864,2
54.40000915527344,-239,48,2059,117884,2
54.43997859954834,-255,90,2062,117914,2
54.480003356933594,-203,72,2077,117918,2
54.51992964744568,-239,64,2032,117784,2
54.56010556221008,-264,41,2052,117587,2
54.60007190704346,-190,20,2062,117540,2
54.63995099067688,-166,9,2037,117561,2
54.67947006225586,-157,-7,1988,117550,2
54.71920728683472,-126,6,1979,117543,2
54.759156465530396,-160,9,1977,117567,2
54.79894256591797,-187,13,2051,117587,2
54.83895564079285,-174,26,2021,117633,2
54.87920904159546,-134,53,2056,117622,2
54.918962478637695,-175,47,1995,117580,2
54.9590425491333,-192,53,2047,117570,2
54.99899744987488,-193,55,2068,117579,2
55.03910851478577,-172,61,2026,117615,2
55.07802176475525,-190,58,2079,117658,2
55.11793351173401,-190,50,2048,117674,2
55.157944679260254,-191,58,2047,117719,2
55.197935819625854,-214,40,2017,117746,2
55.23801898956299,-174,35,2018,117771,2
55.27797746658325,-192,54,2019,117780,2
55.317981481552124,-196,46,2064,117749,2
55.357966899871826,-208,52,2037,117765,2
55.397963762283325,-194,57,2028,117807,2
55.43798208236694,-185,45,2040,117847,2
55.477049827575684,-211,39,2048,117888,2
55.51695728302002,-205,34,2027,117860,2
55.556952476501465,-183,43,2034,117721,2
55.59700846672058,-195,35,2037,117645,2
55.63693857192993,-192,28,2009,117684,2
55.67700457572937,-174,29,2033,117724,2
55.716946840286255,-176,34,2034,117679,2
55.756932973861694,-172,50,2059,117658,2
55.79722547531128,-152,34,2048,117667,2
55.836719274520874,-166,42,2047,117675,2
55.87596917152405,-160,23,2066,117663,2
55.91596484184265,-150,32,2040,117692,2
55.95595908164978,-177,15,2027,117713,2
55.99597477912903,-167,16,2038,117721,2
56.03597092628479,-143,26,2048,117736,2
56.075947999954224,-151,21,2036,117732,2
56.115971326828,-156,18,2051,117694,2
56.15615653991699,-160,22,2039,117677,2
56.19618797302246,-164,27,2027,117681,2
56.23496079444885,-169,26,2066,117683,2
56.274943590164185,-177,37,2053,117680,2
56.31495523452759,-193,42,2030,117718,2
56.35496973991394,-200,61,2044,117753,2
56.39498853683472,-206,41,1967,117779,2
56.434975147247314,-159,34,1985,117814,2
56.47499108314514,-169,22,2032,117722,2
56.51496076583862,-211,39,2007,117515,2
56.5549590587616,-239,31,2095,117411,2
56.59508919715881,-167,45,2103,117401,2
56.63399028778076,-148,39,2074,117384,2
56.67396831512451,-162,35,2028,117377,2
56.713985443115234,-112,44,2003,117385,2
56.75398588180542,-136,29,1987,117435,2
56.79449129104614,-211,39,2027,117462,2
56.83395051956177,-197,26,2066,117470,2
56.874152421951294,-174,16,2019,117436,2
56.91401267051697,-199,31,2008,117436,2
56.95403456687927,-184,35,2064,117423,2
56.99398732185364,-196,39,2032,117460,2
57.033015727996826,-187,27,2042,117482,2
57.07316589355469,-162,35,2063,117493,2
57.11302900314331,-182,35,2040,117515,2
57.152989864349365,-154,21,2022,117562,2
57.19306015968323,-158,23,2060,117580,2
57.23299741744995,-164,22,2034,117587,2
57.27298903465271,-165,29,2032,117572,2
57.31316089630127,-177,19,2048,117575,2
57.353214502334595,-170,29,2066,117567,2
57.393150091171265,-194,32,2023,117581,2
57.431968212127686,-154,11,2053,117596,2
57.47221231460571,-168,31,2001,117488,2
57.51230597496033,-175,26,1990,117358,2
57.55197501182556,-198,25,2062,117317,2
57.592424392700195,-210,34,2034,117303,2
57.63200759887695,-176,28,2025,117259,2
57.67201352119446,-151,13,2048,117215,2
57.71226096153259,-207,4,2014,117186,2
57.752302169799805,-212,15,2003,117198,2
57.792083501815796,-181,33,2062,117228,2
57.83096885681152,-147,31,2086,117240,2
57.87098050117493,-177,28,2059,117257,2
57.91097807884216,-190,20,2060,117293,2
57.952165842056274,-188,33,2073,117292,2
57.99123191833496,-170,27,2041,117292,2
58.03116703033447,-160,31,2017,117293,2
58.07099199295044,-183,19,2056,117250,2
58.11103129386902,-167,24,2045,117255,2
58.15102434158325,-138,19,2050,117254,2
58.1913104057312,-166,15,2017,117260,2
58.22995734214783,-155,7,2016,117286,2
58.26997947692871,-174,13,2065,117308,2
58.31000375747681,-202,14,2037,117357,2
58.350029945373535,-167,16,2015,117401,2
58.39023160934448,-148,23,2038,117429,2
58.4302761554718,-189,2,2020,117458,2
58.47016787528992,-154,-1,2053,117443,2
58.51020860671997,-194,17,2015,117339,2
58.549994468688965,-197,4,2017,117180,2
58.590205669403076,-168,13,2080,117147,2
58.6290020942688,-160,18,2068,117134,2
58.668983697891235,-159,12,2052,117104,2
58.708990812301636,-146,18,2057,117104,2
58.748995542526245,-159,4,2026,117126,2
58.788984060287476,-201,4,2055,117133,2
58.82899570465088,-162,12,2028,117117,2
58.86898398399353,-161,1,2046,117094,2
58.908987522125244,-205,1,2018,117059,2
58.94897532463074,-165,7,2050,117075,2
58.9879994392395,-163,9,2030,117098,2
59.02817463874817,-202,17,2001,117124,2
59.06828784942627,-209,13,2070,117150,2
59.10799527168274,-228,19,2080,117177,2
59.14816117286682,-166,22,2026,117207,2
59.18799066543579,-158,28,2036,117232,2
59.22799038887024,-187,-11,2062,117237,2
59.26801633834839,-184,6,2072,117242,2
59.30799984931946,-166,18,2042,117222,2
59.348098039627075,-168,10,2013,117277,2
59.38700461387634,-158,-9,2052,117294,2
59.42697620391846,-178,-9,2033,117182,2
59.46716523170471,-191,0,1991,117060,2
59.506977796554565,-175,-4,2020,117041,2
59.546979665756226,-149,20,2038,117024,2
59.58697295188904,-175,8,2029,116974,2
59.62697887420654,-172,4,2069,116920,2
59.666993618011475,-182,20,2055,116910,2
59.70716667175293,-164,13,2062,116925,2
59.74704885482788,-168,23,2065,116955,2
59.785977840423584,-181,7,2037,116976,2
59.82613921165466,-175,1,2024,116996,2
59.86599540710449,-172,-2,2039,117028,2
59.9060218334198,-181,10,2012,117050,2
59.94599628448486,-147,17,2030,117087,2
59.98598790168762,-174,15,2026,117058,2
60.02611017227173,-165,16,2063,117025,2
60.065979957580566,-173,15,2057,117004,2
60.1059889793396,-183,4,2026,117022,2
60.14611077308655,-145,5,2035,117086,2
60.18510603904724,-193,16,2044,117122,2
60.22498035430908,-166,3,2023,117147,2
60.265175104141235,-140,12,2009,117171,2
60.30520033836365,-166,-1,2031,117182,2
60.345197916030884,-204,9,2032,117197,2
60.38504457473755,-173,14,2097,117202,2
60.42524743080139,-186,30,2096,117060,2
60.46516036987305,-207,31,2055,116906,2
60.5050253868103,-171,42,2080,116839,2
60.54520893096924,-150,11,1936,116817,2
60.58398175239563,-218,0,2045,116776,2
60.62401866912842,-186,10,2004,116756,2
60.66474986076355,-218,6,2095,116776,2
60.70406937599182,-215,-1,2110,116819,2
60.744810581207275,-175,9,2110,116839,2
60.78396558761597,-153,17,2065,116814,2
60.82415580749512,-131,-2,1971,116794,2
60.864033222198486,-136,-2,1980,116794,2
60.90400505065918,-139,1,1894,116816,2
60.94302845001221,-160,10,1949,116864,2
60.98302936553955,-202,17,2093,116898,2
61.02323913574219,-230,18,2119,116933,2
61.06301188468933,-226,23,2115,116975,2
61.10299468040466,-168,28,2070,116989,2
61.14302396774292,-162,46,2049,117020,2
61.18300771713257,-183,10,1997,117006,2
61.2230429649353,-167,12,1948,116995,2
61.2632954120636,-163,28,2033,117008,2
61.30308127403259,-183,21,2069,117050,2
61.342018842697144,-190,24,2079,117097,2
61.38211965560913,-178,35,2076,117131,2
61.42227363586426,-157,36,2044,117179,2
61.46202373504639,-160,29,2063,117210,2
61.50213623046875,-162,15,2012,117123,2
61.5427942276001,-158,19,2020,116945,2
61.58202338218689,-185,21,2023,116852,2
61.62200164794922,-188,17,2057,116819,2
61.662208557128906,-152,19,2032,116787,2
61.702051877975464,-141,22,2020,116767,2
61.7410364151001,-181,16,2039,116806,2
61.78104257583618,-170,7,2017,116833,2
61.82123780250549,-177,17,1996,116863,2
61.861021995544434,-155,2,2019,116859,2
61.9010169506073,-168,-6,2056,116889,2
61.94102334976196,-204,-1,2059,116884,2
61.98102784156799,-133,9,2037,116878,2
62.02119278907776,-87,17,2032,116870,2
62.061156034469604,-139,10,2064,116885,2
62.10101127624512,-138,3,2085,116910,2
62.14067053794861,-136,14,2074,116936,2
62.18019390106201,-197,33,2027,116970,2
62.22014331817627,-141,24,2005,116997,2
62.259987115859985,-138,6,1974,117029,2
62.30016541481018,-167,18,1977,117067,2
62.34002065658569,-184,10,2046,117079,2
62.38019609451294,-236,19,2076,117084,2
62.42004466056824,-185,4,2115,117121,2
62.46002411842346,-174,11,2044,117028,2
62.500184059143066,-167,12,1982,116914,2
62.53918719291687,-116,11,2001,116859,2
62.579028606414795,-127,38,2034,116840,2
62.6196711063385,-200,18,2012,116860,2
62.65903353691101,-181,18,2087,116869,2
62.699065923690796,-145,34,2074,116875,2
62.73904609680176,-164,35,2027,116904,2
62.77933120727539,-161,29,2052,116891,2
62.81945824623108,-154,20,2047,116883,2
62.85951805114746,-190,9,2030,116882,2
62.89904499053955,-221,20,2075,116924,2
62.93821477890015,-148,20,2050,116960,2
62.98777747154236,-170,12,2048,117014,2
63.02687644958496,-175,19,2054,117033,2
63.058034896850586,-140,22,1997,117056,2
63.09817147254944,-156,16,2032,117091,2
63.13804244995117,-165,11,2011,117100,2
63.17829394340515,-151,4,2024,117063,2
63.21829676628113,-164,28,2037,117045,2
63.25830340385437,-161,31,2019,117055,2
63.2981743812561,-156,35,2031,117088,2
63.337032079696655,-171,33,2055,117098,2
63.377201080322266,-155,21,2009,117125,2
63.4171245098114,-168,29,2046,117151,2
63.45717215538025,-143,1,2055,117160,2
63.49719548225403,-163,4,2013,117009,2
63.53720545768738,-143,13,2045,116903,2
63.577192544937134,-165,18,2060,116870,2
63.61706519126892,-144,16,2034,116833,2
63.65739679336548,-159,26,2039,116788,2
63.69721055030823,-186,28,2095,116787,2
63.736164569854736,-189,25,2059,116843,2
63.77617335319519,-194,27,2056,116887,2
63.81603765487671,-162,21,2042,116931,2
63.85601758956909,-210,-9,2014,116965,2
63.89601755142212,-176,-3,1997,116990,2
63.936028242111206,-183,4,2018,117010,2
63.97602915763855,-196,-5,2015,117004,2
64.01602125167847,-177,8,2022,117003,2
64.05631184577942,-159,23,2040,117005,2
64.09601211547852,-157,6,2065,117035,2
64.13504815101624,-176,-1,2058,117079,2
64.17501831054688,-174,8,2060,117115,2
64.21518230438232,-143,14,2092,117163,2
64.25528359413147,-124,12,2063,117212,2
64.2951762676239,-149,6,2073,117250,2
64.33577752113342,-144,-8,2041,117267,2
64.37521266937256,-160,-10,2031,117295,2
64.41518831253052,-141,-1,2027,117306,2
64.45518612861633,-164,0,2050,117305,2
64.49520349502563,-154,-7,2017,117336,2
64.53403782844543,-171,-23,2048,117378,2
64.57418417930603,-173,-22,2040,117362,2
64.61417436599731,-165,-17,2027,117166,2
64.6544303894043,-168,-15,2021,117056,2
64.69416308403015,-198,2,2034,117047,2
64.73402857780457,-152,7,2022,117058,2
64.77403831481934,-162,-7,2059,117009,2
64.81421732902527,-194,3,2052,116971,2
64.85463833808899,-168,0,2053,116996,2
64.8941605091095,-140,1,2041,117041,2
64.93318676948547,-128,-15,2076,117066,2
64.97320675849915,-158,-17,2034,117085,2
65.01304531097412,-164,-11,2011,117119,2
65.05311012268066,-152,-8,2074,117147,2
65.09317970275879,-154,-7,2040,117171,2
65.13318753242493,-151,-1,2033,117185,2
65.1731698513031,-143,-2,2074,117148,2
65.2131884098053,-179,-2,2026,117133,2
65.25303077697754,-158,-3,2034,117119,2
65.29404067993164,-136,-2,2026,117136,2
65.33203434944153,-207,-4,2029,117179,2
65.37214517593384,-181,-13,2062,117208,2
65.4121642112732,-154,-5,2043,117266,2
65.45219492912292,-160,15,2016,117302,2
65.49203133583069,-125,16,2044,117344,2
65.53212881088257,-155,0,2045,117355,2
65.57207083702087,-158,-16,2050,117214,2
65.61217904090881,-155,-2,2035,117031,2
65.65227913856506,-165,-2,2034,117000,2
65.69211196899414,-153,-9,2026,117021,2
65.7310471534729,-144,3,2021,117052,2
65.77117490768433,-194,4,2047,117074,2
65.81114554405212,-193,11,2065,117111,2
65.85132193565369,-165,8,2069,117155,2
65.89118194580078,-179,22,2055,117146,2
65.93116879463196,-163,1,2016,117130,2
65.97104287147522,-180,2,2036,117121,2
66.01113414764404,-164,0,2053,117108,2
66.05117607116699,-184,-8,2023,117111,2
66.09114789962769,-164,-6,2014,117154,2
66.13011908531189,-156,-6,2060,117173,2
66.1701591014862,-145,3,2045,117187,2
66.210125207901,-154,6,2024,117208,2
66.25028824806213,-130,0,2043,117234,2
66.29005217552185,-118,10,2058,117267,2
66.33005285263062,-146,-1,2002,117277,2
66.37006497383118,-171,-18,2025,117261,2
66.41015720367432,-204,-23,2019,117257,2
66.45005512237549,-159,-7,2085,117253,2
66.49012112617493,-175,7,2073,117294,2
66.52913308143616,-182,-5,2018,117335,2
66.56905817985535,-161,3,2032,117381,2
66.60914731025696,-162,1,2062,117369,2
66.64914965629578,-188,6,2004,117204,2
66.69020748138428,-176,7,2025,117092,2
66.72919654846191,-192,6,2065,117069,2
66.76915788650513,-176,14,2022,117037,2
66.80914831161499,-160,0,2029,116979,2
66.84917330741882,-195,1,2028,116964,2
66.88917636871338,-213,4,2068,117005,2
66.92810893058777,-158,6,2027,117051,2
66.9681625366211,-172,11,2049,117069,2
67.00812554359436,-175,-8,2028,117097,2
67.04815196990967,-156,-5,2024,117114,2
67.08803486824036,-185,1,2062,117143,2
67.12815308570862,-204,-9,2057,117146,2
67.16813349723816,-162,-5,2037,117114,2
67.2081446647644,-188,-4,2020,117095,2
67.24814701080322,-201,-2,2070,117106,2
67.28852319717407,-178,3,2012,117144,2
67.32714700698853,-172,3,2020,117185,2
67.3671522140503,-205,-2,2052,117222,2
67.40716052055359,-205,0,2060,117271,2
67.44716143608093,-212,-7,2015,117297,2
67.48719620704651,-198,-20,1994,117318,2
67.52714490890503,-214,-27,2049,117335,2
67.56715488433838,-180,-18,2016,117324,2
67.60715460777283,-167,-27,2010,117293,2
67.64716935157776,-202,-19,2001,117317,2
67.68755888938904,-191,-34,2027,117373,2
67.72616624832153,-203,-26,2029,117313,2
67.7661497592926,-153,-20,2057,117121,2
67.8061752319336,-125,-20,2089,117058,2
67.84616947174072,-151,-25,2084,117083,2
67.88639402389526,-105,-22,2049,117085,2
67.9263436794281,-120,-10,2059,117050,2
67.96621918678284,-153,-27,2056,117005,2
68.00614976882935,-176,-15,2044,116995,2
68.04616069793701,-198,-20,2045,117010,2
68.08523106575012,-170,-22,2037,117037,2
68.12515759468079,-217,-22,2008,117070,2
68.16515731811523,-208,-18,2021,117102,2
68.2051613330841,-146,-13,2063,117164,2
68.24513983726501,-191,0,2030,117204,2
68.2852737903595,-208,-15,2000,117216,2
68.32516241073608,-174,-14,2069,117200,2
68.36515641212463,-211,-4,2032,117185,2
68.4051685333252,-167,-7,2050,117177,2
68.44516372680664,-167,-9,2038,117214,2
68.48452234268188,-206,-18,2004,117253,2
68.52413940429688,-219,-26,2010,117278,2
68.56415224075317,-184,9,1996,117317,2
68.60414505004883,-160,-12,2052,117358,2
68.64414358139038,-170,-21,2056,117410,2
68.68415832519531,-155,-18,2033,117344,2
68.72413921356201,-174,-16,2051,117132,2
68.76413750648499,-188,-8,2070,117020,2
68.80411076545715,-181,8,2099,116985,2
68.84413623809814,-126,-4,1971,116976,2
68.88331413269043,-164,-33,1960,116963,2
68.9231789112091,-198,-29,2051,116954,2
68.96314668655396,-214,-44,2054,116997,2
69.00314927101135,-221,-18,2054,117031,2
69.04318475723267,-165,-25,2086,117049,2
69.08317971229553,-152,-26,2000,117032,2
69.1231439113617,-188,-29,1981,117014,2
69.16315627098083,-165,-17,2054,117012,2
69.20316910743713,-168,-20,2053,116997,2
69.24316716194153,-239,-33,2050,117029,2
69.28217077255249,-217,-14,2086,117074,2
69.32215023040771,-190,-12,2051,117107,2
69.36215376853943,-194,-17,2050,117141,2
69.4021475315094,-180,-21,2067,117159,2
69.44213724136353,-210,-22,2051,117196,2
69.48215889930725,-213,-20,2028,117210,2
69.52213430404663,-181,-30,2051,117191,2
69.562180519104,-203,-30,2029,117176,2
69.60215711593628,-181,-29,2038,117201,2
69.6423397064209,-176,-39,2022,117249,2
69.68117213249207,-155,-33,2008,117271,2
69.72117972373962,-176,-49,2041,117271,2
69.76116061210632,-196,-70,2012,117092,2
69.80116057395935,-160,-62,2040,116982,2
69.84118342399597,-199,-61,1990,116960,2
69.88122940063477,-162,-22,1990,116939,2
69.92116618156433,-157,19,2067,116866,2
69.96115374565125,-181,4,2096,116836,2
70.00117373466492,-203,10,2093,116837,2
70.04112958908081,-218,0,2100,116883,2
70.0803427696228,-187,-2,2043,116906,2
70.12013745307922,-176,-27,2006,116909,2
70.16013526916504,-230,-42,2028,116949,2
70.20016121864319,-203,-29,2034,116966,2
70.24014449119568,-191,-39,1985,116980,2
70.28014636039734,-189,-36,2019,116990,2
70.3201470375061,-210,-29,2036,116963,2
70.36015057563782,-176,-9,2032,116973,2
70.40014934539795,-187,-18,2072,116981,2
70.44013833999634,-179,-14,2038,117011,2
70.47916173934937,-179,-27,2029,117018,2
70.51915979385376,-179,-35,2036,117020,2
70.55918025970459,-172,-32,2055,117044,2
70.5991690158844,-173,-52,2017,117086,2
70.63917279243469,-173,-37,2030,117129,2
70.67916631698608,-175,-43,2044,117143,2
70.71915769577026,-168,-49,2008,117137,2
70.75912618637085,-153,-41,2060,117138,2
70.7991533279419,-160,-52,2034,117135,2
70.83922147750854,-159,-62,2037,117165,2
70.87822437286377,-170,-39,1996,117118,2
70.91818070411682,-144,-30,2028,116928,2
70.95814752578735,-229,-32,2064,116864,2
70.99813938140869,-201,-34,2076,116844,2
71.03814363479614,-166,-20,2040,116843,2
71.07813668251038,-185,-39,2083,116784,2
71.11848831176758,-201,-44,2050,116765,2
71.15814638137817,-182,-53,2009,116781,2
71.19820499420166,-166,-31,2065,116781,2
71.23716521263123,-200,-46,2042,116812,2
71.27715587615967,-174,-59,1986,116827,2
71.31716918945312,-175,-53,1999,116857,2
71.35716652870178,-194,-41,2011,116893,2
71.39718770980835,-209,-48,2033,116914,2
71.43718194961548,-189,-39,2037,116933,2
71.47716951370239,-216,-34,2079,116919,2
71.51731586456299,-199,-39,2044,116897,2
71.55718946456909,-195,-30,2037,116894,2
71.59714078903198,-188,-41,2026,116930,2
71.63615322113037,-194,-47,2033,116976,2
71.67612934112549,-194,-52,2049,117017,2
71.71648621559143,-177,-50,2049,117061,2
71.75615382194519,-180,-54,2010,117074,2
71.79618906974792,-193,-47,2055,117116,2
71.83616852760315,-166,-53,2020,117066,2
71.87616467475891,-191,-60,2010,116883,2
71.9161810874939,-175,-58,2037,116766,2
71.9562120437622,-181,-41,2043,116743,2
71.99616265296936,-185,-38,2009,116754,2
72.03516292572021,-169,-44,2065,116744,2
72.07515120506287,-198,-34,2080,116730,2
72.11544871330261,-188,-39,2062,116757,2
72.15515923500061,-187,-39,2009,116772,2
72.19514918327332,-186,-31,2021,116749,2
72.23521733283997,-208,-40,2052,116732,2
72.27515387535095,-211,-57,2023,116708,2
72.31516909599304,-180,-49,2053,116716,2
72.35515975952148,-201,-60,2038,116717,2
72.3952362537384,-193,-61,1996,116759,2
72.4342348575592,-159,-55,2035,116800,2
72.47422456741333,-168,-41,2035,116837,2
72.5142776966095,-171,-38,2029,116886,2
72.55434060096741,-164,-28,2036,116898,2
72.5942690372467,-191,-27,2076,116929,2
72.63424277305603,-186,-31,2070,116938,2
72.67426896095276,-192,-42,2038,116911,2
72.71440362930298,-177,-46,2054,116885,2
72.75421619415283,-186,-48,2026,116904,2
72.79323744773865,-200,-54,1994,116962,2
72.83323502540588,-179,-44,2024,116999,2
72.8732647895813,-166,-34,2015,117024,2
72.91327428817749,-191,-15,2038,117054,2
72.95330047607422,-171,-21,2106,117061,2
72.99402689933777,-207,-26,2061,116880,2
73.03324961662292,-185,-28,2059,116714,2
73.07328772544861,-172,-27,2069,116665,2
73.11331868171692,-191,-32,2026,116628,2
73.15325593948364,-174,-39,2006,116613,2
73.19227528572083,-190,-36,2006,116602,2
73.2323009967804,-199,-48,2035,116640,2
73.27229118347168,-194,-44,2019,116676,2
73.31226396560669,-177,-25,2025,116688,2
73.35220551490784,-145,-16,2065,116703,2
73.39223217964172,-205,-16,2042,116695,2
73.43230843544006,-181,-25,2080,116667,2
73.47222208976746,-180,-10,2042,116666,2
73.51222205162048,-165,-6,2024,116653,2
73.5522723197937,-176,-13,2035,116682,2
73.59124422073364,-139,-4,2054,116704,2
73.63140487670898,-179,-9,1983,116739,2
73.6714038848877,-187,-20,2049,116797,2
73.71122550964355,-149,-6,2022,116841,2
73.75122499465942,-178,0,2020,116866,2
73.79127407073975,-168,-7,2030,116867,2
73.83128118515015,-158,-1,2028,116857,2
73.8712248802185,-153,-3,2042,116856,2
73.91121459007263,-171,3,2073,116877,2
73.9502387046814,-172,9,2049,116918,2
73.99027514457703,-127,-1,2059,116912,2
74.030282497406,-147,-3,2055,116766,2
74.07022595405579,-209,-4,2041,116655,2
74.11027097702026,-147,-4,2024,116638,2
74.15029644966125,-90,26,1969,116632,2
74.19023942947388,-142,-4,1964,116585,2
74.23027920722961,-209,8,2094,116540,2
74.27029013633728,-216,9,2102,116569,2
74.31023859977722,-160,14,2096,116587,2
74.34950470924377,-119,20,2061,116619,2
74.3892228603363,-156,-3,2036,116648,2
74.42927432060242,-177,-8,1985,116684,2
74.46919846534729,-135,1,2004,116738,2
74.50924706459045,-147,7,2031,116760,2
74.54927849769592,-163,-2,2029,116761,2
74.58924388885498,-192,7,2035,116759,2
74.62926363945007,-151,8,2054,116744,2
74.66921710968018,-164,17,2010,116731,2
74.70932245254517,-166,5,2068,116764,2
74.74823117256165,-161,9,2040,116814,2
74.78835725784302,-168,5,2044,116862,2
74.82821345329285,-157,5,2031,116899,2
74.86824584007263,-154,6,2046,116954,2
74.90819048881531,-184,1,2034,116992,2
74.94875836372375,-145,3,2029,117017,2
74.98821234703064,-168,16,2045,116997,2
75.02819871902466,-155,-1,2051,117000,2
75.06820011138916,-169,6,2028,116915,2
75.10817813873291,-154,2,2014,116755,2
75.14727568626404,-169,4,2046,116721,2
75.18722414970398,-163,7,2047,116753,2
75.22728037834167,-137,11,2022,116763,2
75.26721143722534,-150,10,2074,116758,2
75.30723857879639,-181,11,2067,116770,2
75.34750175476074,-145,13,2074,116781,2
75.38721299171448,-151,25,2076,116755,2
75.42726492881775,-166,50,2096,116726,2
75.46726202964783,-157,23,2028,116741,2
75.50729274749756,-116,-17,1922,116771,2
75.54639101028442,-133,-13,1910,116798,2
75.58626389503479,-113,-2,1974,116831,2
75.62666630744934,-200,-5,2097,116866,2
75.6662209033966,-229,-7,2129,116897,2
75.70624685287476,-171,6,2121,116918,2
75.74634790420532,-129,21,2124,116946,2
75.786367893219,-149,28,2105,116943,2
75.82626008987427,-123,35,2052,116970,2
75.86621332168579,-111,11,2046,117004,2
75.90527629852295,-124,6,1950,117045,2
75.94556832313538,-143,-1,1910,117092,2
75.98535251617432,-131,-1,1925,117134,2
76.02528929710388,-155,-3,2000,117186,2
76.06525111198425,-194,4,2074,117213,2
76.10524201393127,-186,-14,2007,117226,2
76.1452784538269,-155,3,2069,117240,2
76.18536758422852,-170,16,2145,117177,2
76.2253930568695,-165,22,2065,116930,2
76.26544237136841,-144,19,2053,116849,2
76.30424928665161,-127,19,2033,116881,2
76.34427404403687,-89,25,2010,116895,2
76.3842544555664,-153,13,2003,116870,2
76.42418575286865,-203,1,2041,116883,2
76.46424674987793,-171,7,2074,116913,2
76.50419592857361,-177,11,2061,116935,2
76.54418468475342,-182,7,2064,116916,2
76.58432030677795,-172,-14,2008,116897,2
76.62425756454468,-156,-7,2015,116879,2
76.66432785987854,-176,-2,2027,116908,2
76.70326948165894,-135,-4,2037,116948,2
76.74386501312256,-137,-8,2059,116972,2
76.78324961662292,-169,-5,2088,117011,2
76.82321453094482,-129,-15,2068,117028,2
76.86320924758911,-124,-5,2032,117063,2
76.90325736999512,-129,-6,2047,117067,2
76.94327759742737,-124,-13,2039,117062,2
76.98321223258972,-139,-23,2028,117062,2
77.0232412815094,-154,-19,2040,117072,2
77.06324172019958,-159,-20,2032,117078,2
77.10221147537231,-155,-4,2028,117137,2
77.14227437973022,-136,-15,2048,117167,2
77.18227958679199,-168,-10,2031,117075,2
77.22232985496521,-186,-6,2048,116903,2
77.26228451728821,-161,-8,2051,116865,2
77.30225372314453,-172,2,2042,116857,2
77.34221839904785,-183,4,2017,116828,2
77.38221001625061,-166,2,2027,116786,2
77.4222800731659,-161,-4,2034,116776,2
77.46224665641785,-173,-7,2057,116799,2
77.50120067596436,-164,6,2052,116841,2
77.5413384437561,-144,1,2057,116854,2
77.5812029838562,-187,-9,2028,116880,2
77.62126064300537,-149,-6,2040,116914,2
77.66125130653381,-141,-2,2043,116950,2
77.70122766494751,-139,-24,2036,116953,2
77.74122428894043,-149,-23,2013,116969,2
77.7812430858612,-134,-24,2031,116978,2
77.82133936882019,-107,-9,2046,116955,2
77.86128997802734,-146,-14,2059,116992,2
77.90029716491699,-161,-11,2054,117038,2
77.94028759002686,-125,-4,2042,117071,2
77.98024535179138,-159,-4,2049,117104,2
78.02039289474487,-166,-13,2036,117134,2
78.06020712852478,-144,-15,2016,117168,2
78.10022902488708,-158,-11,2017,117168,2
78.14025950431824,-144,-14,2064,117155,2
78.18044018745422,-170,-21,2005,117064,2
78.22018957138062,-166,-20,2010,116854,2
78.26022815704346,-147,-16,2056,116795,2
78.29920315742493,-164,-20,2035,116830,2
78.33919644355774,-145,-13,2041,116838,2
78.37924528121948,-144,-16,2056,116817,2
78.41923809051514,-149,4,2048,116816,2
78.45921182632446,-182,-16,2056,116862,2
78.49930596351624,-149,1,2072,116856,2
78.53933119773865,-157,-18,2030,116843,2
78.57964253425598,-176,-22,2015,116837,2
78.61927914619446,-160,-9,2046,116825,2
78.65923166275024,-180,-23,2024,116855,2
78.69822430610657,-158,-20,2037,116898,2
78.73817920684814,-149,-11,2052,116924,2
78.77839803695679,-157,-12,2043,116966,2
78.8184220790863,-157,-18,2042,116996,2
78.85839247703552,-137,-22,2034,117017,2
78.89838433265686,-164,-25,2059,117019,2
78.9383180141449,-156,-23,2027,117000,2
78.97842144966125,-108,-14,2003,116998,2
79.01829266548157,-171,-26,2004,117008,2
79.05839586257935,-176,-28,2068,117056,2
79.09724497795105,-144,-25,2043,117079,2
79.1374340057373,-124,-4,2058,117115,2
79.17752599716187,-171,-20,2057,117170,2
79.21730947494507,-149,-19,2025,117187,2
79.25724792480469,-152,-26,2025,117177,2
79.2972195148468,-156,-9,1997,116992,2
79.33740019798279,-170,-26,2026,116794,2
79.37741327285767,-168,-5,2070,116754,2
79.41737174987793,-157,-1,2042,116755,2
79.45619010925293,-139,-6,2041,116759,2
79.49621391296387,-153,-3,2053,116754,2
79.53621745109558,-156,-30,2030,116792,2
79.5764570236206,-148,-15,2040,116842,2
79.61623764038086,-122,-11,2050,116856,2
79.65622282028198,-159,-21,2025,116864,2
79.69618320465088,-181,-25,2030,116871,2
79.73621129989624,-130,-1,2036,116859,2
79.77640008926392,-143,-11,2060,116859,2
79.8162293434143,-161,-20,2020,116896,2
79.85523390769958,-153,-25,2037,116936,2
79.89523005485535,-153,-3,2040,116960,2
79.9352433681488,-151,-6,2053,117005,2
79.97541284561157,-143,-12,2022,117036,2
