Timestamp,AccX,AccY,AccZ,Heart_IR,Phase
0.03809762001037598,-209,1315,1574,124514,0
0.0776817798614502,-203,1317,1587,124545,0
0.11803936958312988,-192,1323,1578,124556,0
0.15789389610290527,-196,1324,1556,124569,0
0.1979219913482666,-194,1335,1546,124558,0
0.2376241683959961,-207,1304,1518,124566,0
0.2778303623199463,-213,1304,1500,124599,0
0.3177986145019531,-170,1306,1476,124607,0
0.35669660568237305,-184,1322,1518,124565,0
0.39699840545654297,-175,1312,1489,124529,0
0.4365723133087158,-179,1320,1508,124537,0
0.476576566696167,-170,1327,1548,124529,0
0.5169394016265869,-176,1334,1568,124545,0
0.5565547943115234,-136,1337,1575,124529,0
0.5969836711883545,-227,1349,1598,124480,0
0.6366965770721436,-166,1304,1528,124516,0
0.6765954494476318,-196,1303,1514,124622,0
0.71657395362854,-166,1323,1512,124848,0
0.7569284439086914,-130,1284,1515,125061,0
0.7957022190093994,-119,1299,1518,125089,0
0.8355488777160645,-125,1326,1548,124992,0
0.8755893707275391,-82,1307,1555,124789,0
0.9161958694458008,-120,1306,1518,124465,0
0.955599308013916,-138,1329,1549,124346,0
0.9957981109619141,-91,1317,1566,124327,0
1.035614013671875,-148,1242,1565,124409,0
1.0756220817565918,-184,1246,1589,124533,0
1.117039442062378,-223,1270,1639,124652,0
1.1559488773345947,-194,1285,1737,124658,0
1.196268081665039,-132,1271,1680,124409,0
1.2345490455627441,-145,1274,1622,124140,0
1.2746083736419678,-147,1287,1550,123875,0
1.3145313262939453,-75,1306,1523,123857,0
1.3549189567565918,-73,1305,1553,123870,0
1.3952105045318604,-56,1280,1564,123865,0
1.434582233428955,-89,1256,1560,123845,0
1.4743919372558594,-109,1286,1595,123851,0
1.5165998935699463,-102,1275,1571,123881,0
1.5549671649932861,-107,1278,1576,123904,0
1.5944578647613525,-105,1287,1596,123908,0
1.6334359645843506,-109,1271,1567,123973,0
1.6733808517456055,-123,1274,1555,124003,0
1.7133924961090088,-137,1318,1592,124030,0
1.7533838748931885,-128,1270,1593,124055,0
1.7934372425079346,-115,1261,1582,124081,0
1.8334307670593262,-112,1263,1587,124122,0
1.8734090328216553,-114,1259,1611,124134,0
1.91351318359375,-96,1255,1577,124123,0
1.9533696174621582,-85,1243,1575,124129,0
1.9934017658233643,-89,1253,1588,124133,0
2.0334746837615967,-78,1241,1611,124181,0
2.0723464488983154,-80,1245,1631,124224,0
2.112468719482422,-84,1251,1658,124265,0
2.1523377895355225,-101,1240,1605,124235,0
2.1923093795776367,-78,1256,1635,124137,0
2.2324368953704834,-99,1249,1603,124134,0
2.2723796367645264,-94,1249,1606,124128,0
2.312382936477661,-78,1254,1604,124109,0
2.3523452281951904,-79,1249,1597,124086,0
2.3923757076263428,-76,1239,1614,124078,0
2.4323368072509766,-92,1254,1629,124115,0
2.4724178314208984,-94,1246,1604,124138,0
2.5113542079925537,-114,1261,1616,124175,0
2.5513439178466797,-116,1249,1611,124188,0
2.5914459228515625,-88,1241,1574,124227,0
2.6313862800598145,-97,1264,1614,124255,0
2.6713685989379883,-87,1258,1590,124259,0
2.711362600326538,-95,1255,1579,124281,0
2.751354455947876,-102,1281,1595,124274,0
2.7915430068969727,-115,1256,1550,124278,0
2.8315367698669434,-145,1256,1548,124264,0
2.871333360671997,-201,1273,1530,124266,0
2.910435438156128,-215,1264,1480,124312,0
2.9503724575042725,-188,1269,1484,124379,0
2.9905338287353516,-151,1301,1493,124412,0
3.0305182933807373,-201,1311,1458,124396,0
3.0704081058502197,-202,1334,1517,124355,0
3.11043119430542,-229,1350,1607,124306,0
3.150397300720215,-259,1347,1596,124244,0
3.1903841495513916,-310,1334,1598,124194,0
3.2312560081481934,-282,1313,1644,124160,0
3.270498752593994,-322,1324,1587,124102,0
3.31034779548645,-286,1332,1560,124100,0
3.349475860595703,-329,1343,1559,124096,0
3.3904287815093994,-334,1337,1524,124120,0
3.4294536113739014,-349,1335,1519,124165,0
3.469355821609497,-339,1318,1531,124182,0
3.5094223022460938,-360,1321,1557,124207,0
3.5494041442871094,-341,1289,1540,124209,0
3.5893588066101074,-268,1282,1522,124213,0
3.629364013671875,-229,1279,1474,124197,0
3.669344425201416,-216,1275,1508,124205,0
3.7093329429626465,-223,1288,1482,124226,0
3.749333381652832,-200,1338,1525,124264,0
3.788325309753418,-220,1367,1572,124308,0
3.828871965408325,-260,1348,1578,124330,0
3.8683276176452637,-300,1302,1545,124318,0
3.9083731174468994,-311,1282,1520,124243,0
3.948669195175171,-313,1287,1502,124183,0
3.9883179664611816,-272,1317,1539,124137,0
4.02840518951416,-239,1331,1568,124071,0
4.068323612213135,-253,1329,1562,124005,0
4.108332633972168,-278,1321,1563,123970,0
4.1483752727508545,-300,1330,1537,123960,0
4.188333511352539,-295,1332,1511,123982,0
4.228179216384888,-278,1335,1517,123980,0
4.267323970794678,-258,1338,1512,123990,0
4.307325124740601,-258,1336,1511,124016,0
4.347341537475586,-273,1322,1512,124032,0
4.387398719787598,-266,1317,1503,124055,0
4.4273529052734375,-225,1335,1513,124060,0
4.467323303222656,-232,1340,1512,124037,0
4.5073418617248535,-235,1342,1493,124027,0
4.547374248504639,-265,1336,1507,124015,0
4.58732271194458,-261,1317,1511,124061,0
4.62636137008667,-322,1320,1499,124086,0
4.666335821151733,-250,1320,1525,124115,0
4.706331253051758,-260,1344,1569,124100,0
4.746321439743042,-232,1326,1549,124034,0
4.786355972290039,-223,1307,1564,123986,0
4.82639217376709,-249,1261,1506,123948,0
4.866422414779663,-224,1263,1529,123880,0
4.906326532363892,-173,1242,1521,123808,0
4.9463794231414795,-121,1291,1523,123761,0
4.9865806102752686,-105,1328,1533,123752,0
5.026336193084717,-180,1349,1546,123770,0
5.065720319747925,-231,1303,1646,123792,0
5.105358123779297,-294,1269,1743,123805,0
5.145380258560181,-227,1219,1683,123820,0
5.185352563858032,-140,1239,1616,123860,0
5.2253453731536865,-107,1273,1574,123874,0
5.265383958816528,-47,1304,1498,123899,0
5.305328607559204,-33,1260,1433,123904,0
5.345404624938965,-34,1300,1515,123905,0
5.385337829589844,-22,1288,1508,123916,0
5.425327301025391,-29,1285,1534,123890,0
5.465398550033569,-33,1273,1558,123951,0
5.504327297210693,-2,1251,1585,124018,0
5.544398069381714,-17,1266,1605,124048,0
5.584329605102539,-7,1288,1626,124029,0
5.624355792999268,-12,1262,1631,124013,0
5.664397954940796,-51,1287,1576,123983,0
5.704364061355591,-117,1309,1582,123818,0
5.7443459033966064,-129,1330,1517,123589,0
5.7843663692474365,-190,1336,1505,123353,0
5.824358701705933,-261,1374,1335,123271,0
5.864522218704224,-247,1384,1211,123292,0
5.904372930526733,-304,1430,1135,123248,0
5.943403720855713,-316,1489,1043,123100,0
5.983368158340454,-482,1548,1024,122923,0
6.023332595825195,-461,1565,896,123034,0
6.063411235809326,-354,1604,972,123191,0
6.1033830642700195,-363,1674,1078,123336,0
6.143403768539429,-428,1670,1026,123362,0
6.183370351791382,-399,1678,1131,123470,0
6.223434209823608,-357,1726,1337,123487,0
6.263484954833984,-247,1726,1357,123536,0
6.303391456604004,-168,1683,1410,123498,0
6.343453407287598,-262,1710,1295,123524,0
6.382401943206787,-140,1702,1323,123439,0
6.4223973751068115,-164,1643,1281,123180,0
6.462680816650391,-142,1712,1322,122898,0
6.502380132675171,50,1659,1224,122783,0
6.542389869689941,147,1653,1273,122608,0
6.582406997680664,136,1663,1273,122316,0
6.622354030609131,109,1648,1072,122262,0
6.66317343711853,140,1724,977,122398,0
6.7024924755096436,209,1674,915,122363,0
6.742336273193359,368,1476,1095,122187,0
6.7823872566223145,71,1577,1328,122317,0
6.821529388427734,1,1683,1454,122677,0
6.8613831996917725,13,1558,1384,123123,0
6.90134859085083,23,1620,1202,123305,0
6.941329479217529,89,1599,1314,123305,0
6.981338739395142,12,1662,1244,123329,0
7.021382808685303,71,1695,1204,123250,0
7.061344385147095,59,1697,1248,122983,0
7.101360321044922,233,1721,1204,122809,0
7.141472339630127,314,1701,1111,122592,0
7.1814351081848145,503,1702,1111,122323,0
7.221405744552612,221,1628,1084,122215,0
7.260393857955933,272,1658,948,122020,0
7.300341367721558,350,1767,913,121991,0
7.34034538269043,319,1692,931,122022,0
7.38046932220459,261,1710,947,122087,0
7.420393228530884,234,1727,1130,122125,0
7.46054744720459,236,1738,1203,122137,0
7.500349998474121,226,1734,1190,122108,0
7.540336847305298,251,1749,1165,122081,0
7.5803515911102295,317,1740,1070,122052,0
7.6203930377960205,275,1714,1005,122080,0
7.660354137420654,262,1717,1079,122133,0
7.6993749141693115,251,1743,1020,122210,0
7.739338397979736,228,1738,1074,122236,0
7.779356002807617,206,1726,1075,122221,0
7.819408416748047,279,1756,1083,122177,0
7.859373569488525,246,1737,1037,122144,0
7.89980411529541,310,1758,1031,122161,0
7.939416170120239,331,1750,1022,122162,0
7.979366779327393,325,1744,944,122096,0
8.019395112991333,274,1722,902,122061,0
8.05934453010559,273,1746,999,122096,0
8.099393844604492,269,1762,889,122140,0
8.138391017913818,247,1868,803,122195,0
8.178364515304565,163,1689,929,122311,0
8.218409538269043,-43,1796,892,122365,0
8.258386373519897,-20,1837,749,122499,0
8.298498392105103,55,1886,823,122565,0
8.339051723480225,-8,1931,824,122539,0
8.378399848937988,-7,1934,751,122511,0
8.418383121490479,22,1927,763,122446,0
8.458365440368652,-18,1885,760,122401,0
8.498841285705566,-27,1899,794,122419,0
8.538361072540283,-3,1881,729,122396,0
8.577401399612427,-6,1889,755,122334,0
8.617603540420532,-21,1903,743,122228,0
8.657436609268188,-84,1883,682,122082,0
8.697390079498291,-43,1907,639,122119,0
8.737429857254028,-41,1888,661,122219,0
8.777423858642578,-132,1916,721,122301,0
8.817409753799438,-186,1867,704,122306,0
8.857462882995605,-109,1885,644,122373,0
8.897610187530518,-191,1872,691,122412,0
8.937452554702759,-228,1917,537,122489,0
8.97785210609436,-188,1870,771,122586,0
9.016368627548218,-206,1874,716,122420,0
9.056427240371704,-137,1871,727,122415,0
9.09666657447815,-192,1879,823,122527,0
9.136367082595825,-210,1931,666,122639,0
9.176416397094727,-215,1922,654,122583,0
9.216515302658081,-139,1919,732,122633,0
9.256374597549438,-183,1912,691,122778,0
9.29638147354126,-169,1937,623,122780,0
9.336426734924316,-192,1921,757,122836,0
9.376389503479004,-276,1914,657,122839,0
9.41641640663147,-213,1899,676,122663,0
9.455425024032593,-223,1900,662,122431,0
9.496289253234863,-152,1940,483,122207,0
9.535363674163818,-52,2191,743,122294,0
9.575376987457275,-179,1949,482,121276,0
9.615356922149658,71,1920,769,118112,0
9.655418157577515,158,1906,779,119876,0
9.69536805152893,168,1927,590,124748,0
9.735409259796143,189,1925,711,125532,0
9.77543330192566,61,1927,663,125611,0
9.815479278564453,-23,1939,573,125615,0
9.855358362197876,-6,1923,613,125498,0
9.894546270370483,-19,1947,655,125325,0
9.934370517730713,-23,1967,544,125202,0
9.974364280700684,-30,1965,543,125223,0
10.01436710357666,-85,1968,599,125280,0
10.054365158081055,-38,1975,474,125310,0
10.094404458999634,-77,1962,481,125415,0
10.134579420089722,-103,1967,540,125465,0
10.174373865127563,-88,1964,500,125414,0
10.21438217163086,-142,1970,568,125341,0
10.254422903060913,-63,1962,525,125347,0
10.294374704360962,-79,1971,447,125438,0
10.333380937576294,-86,1970,523,125556,0
10.373374700546265,11,1959,500,125578,0
10.413399934768677,-13,1980,385,125509,0
10.45337462425232,38,1986,486,125481,0
10.493374109268188,-15,1968,422,125414,0
10.533394813537598,-42,1962,446,125491,0
10.573375701904297,-47,1955,490,125712,0
10.613402366638184,-84,1973,462,126097,0
10.653394937515259,-63,1963,559,126173,0
10.693390130996704,-90,1979,529,126126,0
10.733452558517456,-80,1986,515,125909,0
10.772428512573242,-44,1968,609,125664,0
10.81246042251587,-8,1987,622,125513,0
10.852458953857422,-11,1958,581,125450,0
10.892386436462402,-15,1951,605,125434,0
10.932420253753662,-19,1920,602,125457,0
10.972436428070068,-19,1923,609,125469,0
11.01238203048706,-9,1913,632,125422,0
11.052381992340088,-10,1934,634,125350,0
11.092402935028076,15,1927,651,125283,0
11.133087635040283,33,1929,630,125268,0
11.172469139099121,34,1922,599,125314,0
11.212428569793701,10,1919,636,125388,0
11.25143575668335,-21,1928,704,125438,0
11.291438579559326,-23,1937,747,125455,0
11.33141279220581,15,1935,680,125501,0
11.371438980102539,46,1906,691,125523,0
11.41138744354248,77,1893,610,125536,0
11.451380491256714,90,1883,566,125471,0
11.491376399993896,87,1909,574,125462,0
11.531710147857666,32,1909,599,125465,0
11.5715651512146,-44,1928,636,125455,0
11.611444234848022,-81,1944,730,125336,0
11.651415348052979,-167,1934,714,125170,0
11.690419673919678,-123,1909,792,125121,0
11.73054313659668,-52,1913,762,125099,0
11.77041745185852,22,1921,763,125087,0
11.849597692489624,47,1915,807,125091,0
11.850996494293213,66,1929,751,125129,0
11.890445470809937,34,1926,701,125132,0
11.930362462997437,2,1899,676,125108,0
11.970396518707275,-59,1887,690,125067,0
12.010386228561401,-85,1901,687,125070,0
12.050403356552124,-84,1901,699,125074,0
12.090402126312256,-103,1922,686,125125,0
12.130398511886597,-107,1923,682,125158,0
12.169395446777344,-93,1934,699,125189,0
12.209448099136353,-120,1940,574,125236,0
12.249437808990479,-101,1934,631,125271,0
12.289414644241333,-120,1932,608,125304,0
12.32943058013916,-113,1921,563,125327,0
12.369415283203125,-130,1910,665,125340,0
12.40941858291626,-113,1930,674,125318,0
12.449402093887329,-64,1929,684,125285,0
12.489398717880249,-69,1939,678,125155,0
12.529551982879639,-42,1924,691,124947,0
12.568474531173706,-21,1916,724,124797,0
12.608400106430054,-17,1919,644,124692,0
12.648437738418579,-32,1916,646,124660,0
12.688861608505249,-79,1895,673,124655,0
12.728433609008789,-83,1887,688,124649,0
12.768407583236694,-45,1880,705,124679,0
12.808516502380371,-20,1874,675,124689,0
12.84841799736023,-12,1894,718,124691,0
12.888421535491943,-28,1911,716,124697,0
12.928520679473877,-57,1910,718,124726,0
12.968414306640625,-89,1936,769,124769,0
13.007474660873413,-94,1950,761,124783,0
13.047411441802979,-80,1936,740,124808,0
13.087409496307373,-81,1914,715,124848,0
13.128042697906494,-84,1896,689,124882,0
13.167433261871338,-79,1896,660,124890,0
13.207418441772461,-110,1904,719,124868,0
13.247411012649536,-97,1883,717,124843,0
13.2874174118042,-92,1866,746,124809,0
13.32744574546814,-41,1873,688,124772,0
13.367431640625,-37,1905,651,124589,0
13.407432794570923,-102,1933,719,124325,0
13.44642949104309,-101,1931,822,124236,0
13.486417055130005,-81,1943,791,124176,0
13.526456832885742,-31,1916,776,124155,0
13.566407918930054,-24,1890,754,124138,0
13.60640001296997,-9,1864,680,124134,0
13.646461963653564,-13,1853,676,124152,0
13.68646788597107,-50,1861,671,124092,0
13.726430416107178,-89,1884,710,123996,0
13.766572713851929,-118,1912,761,123917,0
13.806432723999023,-103,1921,733,123825,0
13.84645676612854,-77,1922,736,123828,0
13.886645555496216,-65,1908,754,123850,0
13.92540431022644,-73,1908,710,123871,0
13.965488195419312,-65,1904,737,123911,0
14.005476236343384,-59,1885,730,123950,0
14.04547381401062,-39,1883,745,123986,0
14.085448265075684,-52,1878,744,124008,0
14.125462770462036,-30,1882,770,124019,0
14.165822505950928,-21,1889,759,124013,0
14.206425428390503,-10,1887,755,124010,0
14.245460987091064,-25,1890,740,123931,0
14.285471200942993,-58,1891,771,123803,0
14.325393676757812,-93,1883,787,123738,0
14.364699602127075,-52,1849,753,123700,0
14.404456615447998,9,1862,798,123678,0
14.444461345672607,-6,1885,854,123670,0
14.48448395729065,-27,1870,919,123685,0
14.524435997009277,-30,1875,915,123716,0
14.564432382583618,-52,1863,851,123716,0
14.6044602394104,-51,1871,787,123677,0
14.644436359405518,-37,1878,859,123637,0
14.684471607208252,40,1854,846,123621,0
14.724495649337769,75,1859,712,123624,0
14.764488935470581,57,1863,674,123678,0
14.803401708602905,9,1842,719,123717,0
14.84347677230835,-20,1839,741,123748,0
14.883472204208374,-38,1847,812,123778,0
14.923462629318237,-44,1864,817,123802,0
14.963862419128418,-12,1871,843,123825,0
15.003477096557617,-1,1872,833,123830,0
15.043429613113403,-9,1867,828,123831,0
15.083552837371826,0,1879,847,123817,0
15.123435020446777,-7,1872,835,123705,0
15.163437366485596,-35,1863,824,123576,0
15.203446865081787,-31,1860,809,123562,0
15.242996454238892,-28,1862,781,123503,0
15.282521486282349,10,1853,824,123375,0
15.322450160980225,-11,1840,857,123358,0
15.362521886825562,-29,1849,838,123394,0
15.402634143829346,-38,1842,821,123416,0
15.442471265792847,-32,1850,816,123404,0
15.482477188110352,-33,1859,803,123420,0
15.522462606430054,-15,1880,853,123431,0
15.562427282333374,-18,1877,842,123435,0
15.602433681488037,-38,1865,829,123471,0
15.643113851547241,-50,1858,823,123490,0
15.681427717208862,-72,1857,814,123547,0
15.721473932266235,-68,1859,821,123565,0
15.761440753936768,-72,1844,835,123589,0
15.801486492156982,-48,1877,852,123627,0
15.841424226760864,-30,1882,879,123649,0
15.881506204605103,-48,1871,852,123664,0
15.921475410461426,-55,1861,877,123692,0
15.961474657058716,-39,1851,854,123640,0
16.001515865325928,-34,1855,874,123487,0
16.041676998138428,-29,1845,834,123362,0
16.081464290618896,-3,1827,875,123356,0
16.12045121192932,-20,1826,836,123341,0
16.16054058074951,-25,1860,809,123325,0
16.200411796569824,0,1847,915,123340,0
16.24050235748291,4,1829,880,123398,0
16.28046154975891,-29,1865,829,123517,0
16.320551872253418,-55,1875,842,123628,0
16.360453844070435,8,1868,877,123760,0
16.400535583496094,20,1895,889,123789,0
16.440510034561157,-62,1922,963,123796,0
16.48043656349182,36,1936,926,123696,0
16.520437002182007,146,1868,908,123649,0
16.559441089630127,226,1756,886,123611,0
16.599454879760742,293,1696,746,123663,0
16.639590740203857,232,1670,819,123715,0
16.679552793502808,4,1764,1023,123689,0
16.71950602531433,-142,1802,1062,123593,0
16.75943875312805,-217,1799,873,123542,0
16.799888610839844,-270,1822,1003,123690,0
16.839497089385986,-461,1873,1112,123836,0
16.879483938217163,-508,1851,874,123819,0
16.919748306274414,-510,1807,947,124029,0
16.959466695785522,-496,1786,1075,124282,0
16.999457597732544,-510,1710,904,124334,0
17.03882932662964,-448,1656,954,124373,0
17.07886028289795,-499,1632,1022,124422,0
17.118505716323853,-468,1568,887,124509,0
17.158878087997437,-449,1539,986,124439,0
17.19949197769165,-493,1467,1059,124014,0
17.238473892211914,-252,1396,1098,123595,0
17.278522729873657,-67,1450,1390,123402,0
17.31855869293213,-127,1417,1511,123473,0
17.358532905578613,-214,1379,1547,123666,0
17.398820638656616,-213,1372,1687,123820,0
17.438474655151367,-233,1345,1660,123947,0
17.477522373199463,-167,1270,1598,124049,0
17.51751947402954,-306,1270,1707,124150,0
17.55747961997986,-296,1257,1605,124222,0
17.597915649414062,-287,1248,1567,124330,0
17.63754630088806,-243,1274,1590,124421,0
17.677692890167236,-240,1265,1483,124419,0
17.71752405166626,-289,1280,1481,124296,0
17.757567644119263,-257,1266,1498,124217,0
17.79747700691223,-257,1239,1530,124261,0
17.837566375732422,-257,1224,1544,124302,0
17.87748098373413,-268,1180,1626,124326,0
17.9164879322052,-259,1183,1656,124416,0
17.95650029182434,-258,1176,1717,124534,0
17.996580839157104,-217,1161,1678,124586,0
18.036532640457153,-188,1147,1643,124648,0
18.076594591140747,-215,1159,1678,124672,0
18.116475582122803,-207,1149,1645,124684,0
18.15650248527527,-204,1140,1666,124642,0
18.196492910385132,-200,1127,1659,124616,0
18.236480712890625,-205,1139,1658,124590,0
18.27647852897644,-219,1134,1652,124600,0
18.316583156585693,-238,1151,1702,124635,0
18.356534481048584,-268,1130,1729,124648,0
18.395529985427856,-232,1119,1731,124663,0
18.435540676116943,-214,1117,1744,124671,0
18.475494623184204,-172,1104,1731,124720,0
18.515583276748657,-157,1084,1725,124635,0
18.556102752685547,-159,1092,1726,124456,0
18.595476627349854,-153,1077,1780,124368,0
18.63546848297119,-138,1058,1692,124295,0
18.675499200820923,-131,1059,1736,124227,0
18.715476989746094,-97,1063,1730,124215,0
18.755624055862427,-93,1057,1715,124255,0
18.795490503311157,-100,1056,1700,124337,0
18.83448624610901,-119,1070,1726,124355,0
18.874491214752197,-97,1069,1707,124356,0
18.914480447769165,-85,1074,1716,124355,0
18.9546377658844,-74,1074,1724,124347,0
18.99445867538452,-75,1075,1725,124392,0
19.034532070159912,-81,1080,1741,124409,0
19.07447648048401,-67,1056,1710,124424,0
19.11480212211609,-66,1060,1738,124425,0
19.154491901397705,-54,1049,1758,124467,0
19.19447922706604,-44,1030,1771,124505,0
19.23484444618225,-44,1046,1759,124540,0
19.273484706878662,-36,1050,1788,124439,0
19.31363582611084,-14,1048,1741,124224,0
19.35352349281311,-27,1060,1758,124137,0
19.39351773262024,-24,1053,1726,124109,0
19.43355965614319,-28,1052,1747,124090,0
19.47353959083557,-32,1038,1769,124085,0
19.51349663734436,-24,1030,1763,124080,0
19.553492784500122,-30,1029,1746,124095,0
19.593478441238403,-18,1040,1786,124097,0
19.633525133132935,-23,1034,1747,124080,0
19.673743963241577,-28,1038,1725,124121,0
19.71255111694336,-18,1028,1710,124196,0
19.75249719619751,-14,1028,1717,124247,0
19.792497873306274,-34,1032,1768,124290,0
19.8327739238739,-18,1032,1773,124325,0
19.8725266456604,-20,1014,1785,124357,0
19.91251802444458,-26,1023,1805,124387,0
19.952492237091064,-38,991,1813,124400,0
19.992592573165894,-57,990,1793,124374,0
20.032487630844116,-66,954,1802,124355,1
20.072554111480713,-107,923,1799,124161,1
20.112560033798218,-149,941,1838,124021,1
20.151536464691162,-88,912,1913,124008,1
20.191484928131104,-84,883,1788,123976,1
20.232189416885376,-109,885,1751,123991,1
20.271522760391235,-96,967,1802,123990,1
20.311519622802734,-150,1096,1818,123989,1
20.35155487060547,-89,1410,1811,124013,1
20.39242148399353,15,1814,1714,124014,1
20.431543111801147,-31,2192,1525,124081,1
20.47161364555359,-95,2607,1324,124284,1
20.51153254508972,368,2589,920,124509,1
20.551589727401733,556,2546,851,124713,1
20.59049677848816,905,2443,952,124899,1
20.630545616149902,1100,1972,865,125127,1
20.670473337173462,867,764,1390,125488,1
20.71059226989746,-24,-1119,2112,125421,1
20.750540018081665,33,-3615,1927,125343,1
20.790593147277832,-1116,-2233,2932,125312,1
20.830502033233643,-1744,390,1864,124612,1
20.87052059173584,-1531,968,2887,124213,1
20.910551071166992,1318,102,3376,124100,1
20.950538635253906,858,93,2229,124198,1
20.990528345108032,53,185,1704,124275,1
21.0295090675354,17,27,2095,124286,1
21.069534063339233,-120,24,2592,124273,1
21.109538555145264,-86,-354,2575,124384,1
21.14955449104309,-692,-185,2217,124315,1
21.18949246406555,-543,-445,1793,124180,1
21.229530334472656,-488,167,2061,123956,1
21.269622325897217,-203,276,1692,123589,1
21.309532642364502,-117,480,1493,123356,1
21.349523305892944,95,961,1599,123336,1
21.38954997062683,162,1184,1836,123308,1
21.429540872573853,307,1336,2044,123261,1
21.468533039093018,138,1564,1953,123228,1
21.508628368377686,406,1910,2068,123192,1
21.548546075820923,310,2337,2102,123148,1
21.588536262512207,78,2470,1974,122998,1
21.62852692604065,-20,2202,1806,122905,1
21.668551921844482,159,1876,1552,122791,1
21.718360900878906,200,1868,1653,122789,1
21.74859642982483,410,1691,1662,122784,1
21.788530588150024,465,1288,1564,122775,1
21.828542709350586,198,823,1783,123200,1
21.868749856948853,38,-305,1911,123263,1
21.907556295394897,-428,-1511,1671,123228,1
21.9476375579834,-652,-2651,2213,123389,1
21.98756217956543,-830,-631,2962,122974,1
22.027579069137573,-1535,1562,2992,122614,1
22.06779193878174,-774,654,3151,122744,1
22.107665300369263,1146,-20,2370,122875,1
22.147593021392822,765,106,1749,122989,1
22.187539100646973,200,220,2009,122940,1
22.227488040924072,362,52,2595,122922,1
22.267716646194458,-5,-258,2821,123005,1
22.307514429092407,-323,-962,2619,123016,1
22.346547842025757,-962,-1044,2625,122921,1
22.386550426483154,-607,-1055,2206,122476,1
22.42656660079956,-555,-672,1842,122081,1
22.46684956550598,-202,273,1515,121694,1
22.506770372390747,703,756,1297,121877,1
22.546621561050415,1005,1926,1685,121988,1
22.5865957736969,1196,2300,1865,122057,1
22.62652325630188,1328,2933,2117,122107,1
22.666550874710083,622,3704,1779,122408,1
22.706509828567505,-19,3242,1139,122892,1
22.746538639068604,304,2794,574,123056,1
22.78555655479431,460,2461,512,122948,1
22.82550024986267,779,2442,957,123128,1
22.865583419799805,1153,1441,1193,123475,1
22.905523538589478,80,291,1485,124006,1
22.94554114341736,-619,-1300,2451,124322,1
22.985585689544678,-801,-3482,2242,124260,1
23.025556802749634,-1177,-2233,3254,124097,1
23.06554388999939,-803,-284,2883,123463,1
23.105520725250244,-758,247,3569,123402,1
23.14557981491089,-282,-902,4014,123515,1
23.185537576675415,-787,-1833,3287,123285,1
23.224550485610962,-995,-1788,2358,122747,1
23.264761209487915,-911,-730,1469,122114,1
23.30451273918152,-479,176,1484,121827,1
23.344581365585327,641,1153,1436,122084,1
23.384525537490845,799,1634,1359,122417,1
23.424571990966797,612,1962,1765,122837,1
23.464707851409912,710,2757,2629,122819,1
23.504554271697998,614,3914,2460,122645,1
23.54453420639038,-57,3967,1501,123001,1
23.584563970565796,-347,2962,1058,123404,1
23.624518394470215,399,2395,816,123463,1
23.663527488708496,198,2629,581,123346,1
23.7035653591156,370,2525,904,123352,1
23.743542432785034,1330,1777,999,123485,1
23.7835476398468,1095,544,1070,124047,1
23.82353949546814,-95,-557,1925,124703,1
23.86357307434082,-1164,-3957,2408,124769,1
23.903558492660522,-861,-4187,2750,124090,1
23.94353437423706,-510,-469,2752,123561,1
23.983527660369873,-684,222,3602,123243,1
24.023528575897217,178,-970,4053,123056,1
24.06355333328247,-677,-1809,3298,122833,1
24.102550506591797,-859,-2294,2543,122533,1
24.142630338668823,-1023,-1179,1845,122096,1
24.182575464248657,-529,-45,1087,122074,1
24.2225182056427,-83,957,1143,122479,1
24.26251792907715,683,1879,1330,122952,1
24.30255651473999,569,2154,1910,123223,1
24.342578411102295,744,3079,2483,123384,1
24.382523775100708,902,3616,2291,123269,1
24.422539234161377,397,3693,1559,123557,1
24.462581396102905,37,3038,1066,124186,1
24.503028631210327,319,2280,694,124336,1
24.54151439666748,669,2309,608,124132,1
24.581541776657104,597,2587,945,124315,1
24.621591091156006,891,2769,1403,124502,1
24.66154432296753,754,2078,1535,125047,1
24.70168948173523,109,603,1881,125773,1
24.741586446762085,-496,-1382,2263,125569,1
24.781591653823853,-1148,-4977,1616,124839,1
24.82158398628235,-1255,-3625,2841,124674,1
24.86149549484253,-751,79,2774,124253,1
24.901577949523926,-251,150,4040,124130,1
24.94157123565674,1946,-954,3387,124045,1
24.98054027557373,101,-1328,2724,124145,1
25.020642518997192,-1035,-1634,2334,124047,1
25.060593605041504,-549,-1263,2214,123898,1
25.10084104537964,-760,-669,1727,123686,1
25.14054799079895,52,185,1418,123734,1
25.180534839630127,308,615,1505,123835,1
25.220569133758545,380,1373,1406,123910,1
25.26061987876892,1053,2157,1618,124047,1
25.301485061645508,597,2335,1960,124127,1
25.34053373336792,509,3180,2324,124129,1
25.380556344985962,5,3728,2519,124288,1
25.419830799102783,-447,3487,2352,124448,1
25.45955991744995,-517,2617,1847,124383,1
25.49962592124939,-83,2168,1271,124305,1
25.539572715759277,160,2397,1028,124019,1
25.579585790634155,513,2276,1136,123629,1
25.619539976119995,893,1434,1277,124345,1
25.659525394439697,526,508,1719,125720,1
25.699580192565918,-322,-1186,2036,125827,1
25.739606380462646,-895,-3745,1963,125683,1
25.77986717224121,-1389,-2974,3143,125457,1
25.819547176361084,-1222,33,2415,124901,1
25.858562707901,-1023,559,3096,124736,1
25.898563146591187,746,-459,3591,124960,1
25.938595294952393,269,-1047,3237,125080,1
25.978634119033813,-1032,-1517,2465,125053,1
26.018598556518555,-1064,-1249,1882,124931,1
26.058603286743164,-1129,-242,1821,124749,1
26.09855341911316,-495,266,1561,124704,1
26.138540267944336,8,849,1518,124620,1
26.178584575653076,698,1513,1523,124713,1
26.218557119369507,909,1901,1983,124814,1
26.258578300476074,849,2748,2070,124857,1
26.297567129135132,541,3148,2416,124688,1
26.33761215209961,71,3738,2523,124711,1
26.37856388092041,-450,3197,2011,124891,1
26.418185472488403,-167,2553,1637,124799,1
26.45764183998108,199,2384,1091,124471,1
26.49768042564392,493,2528,1211,124263,1
26.537593603134155,1167,2126,1510,125032,1
26.578238487243652,520,471,1522,126051,1
26.617627143859863,-368,-804,2199,126353,1
26.65769076347351,-1447,-3575,2297,126311,1
26.69762659072876,-1910,-3080,3073,125803,1
26.73692226409912,-976,-348,2638,125590,1
26.776617527008057,-459,-207,2955,125542,1
26.81657648086548,363,-619,3568,125770,1
26.856582164764404,-56,-1582,3014,125750,1
26.896608114242554,-789,-1702,2467,125560,1
26.936692476272583,-1071,-1204,1704,125252,1
26.976618766784668,-1080,-559,1878,125007,1
27.016594648361206,-62,994,1476,124776,1
27.056607246398926,206,1176,1266,124543,1
27.09661602973938,378,1564,1606,124734,1
27.135612726211548,570,2268,2306,124975,1
27.175559282302856,602,2617,2380,125088,1
27.21555185317993,60,2943,2329,125068,1
27.255615949630737,-269,3213,2372,124951,1
27.29562497138977,-454,2668,1845,125189,1
27.335666179656982,-417,2260,1730,125082,1
27.37562918663025,115,2081,1400,124900,1
27.415573358535767,145,2109,1621,124949,1
27.455593585968018,524,1657,1831,125003,1
27.495561838150024,1036,885,1916,125711,1
27.53654432296753,-185,-583,2716,126430,1
27.574578523635864,-774,-3369,2348,126373,1
27.6146023273468,-1747,-4395,2698,126241,1
27.654590606689453,-979,-945,2851,125920,1
27.694588661193848,-1583,860,3108,125610,1
27.734885931015015,-18,-396,3242,125757,1
27.774584770202637,296,-1207,3486,126010,1
27.81483006477356,-612,-1739,2392,125989,1
27.854623079299927,-1058,-1295,1783,125567,1
27.894558668136597,-549,-370,1818,125304,1
27.934622764587402,-702,248,1715,125001,1
27.97462296485901,304,706,1921,124935,1
28.013631105422974,1191,1551,1897,124957,1
28.05364418029785,743,1940,1406,125151,1
28.09358310699463,969,2297,1648,125437,1
28.134265661239624,938,3244,1717,125476,1
28.173603534698486,-64,4123,1384,125474,1
28.213565587997437,-259,3508,818,125654,1
28.253650188446045,-454,3008,435,125835,1
28.29357600212097,-74,2865,363,125794,1
28.333590984344482,-162,3228,446,125607,1
28.373612642288208,869,2733,639,125610,1
28.41274929046631,1514,1374,1204,126310,1
28.452617406845093,726,-423,2569,127021,1
28.492643356323242,-1239,-4150,3200,126728,1
28.532657861709595,-983,-4857,2893,126235,1
28.57269048690796,-916,-718,2848,125962,1
28.61263108253479,-1010,386,2577,125491,1
28.652625799179077,696,-869,2641,125488,1
28.692618131637573,-742,-1269,3143,125749,1
28.73269271850586,-919,-2693,2584,125612,1
28.77406406402588,-903,-1897,1563,125295,1
28.812625408172607,-699,-536,1211,124775,1
28.851621866226196,844,1129,1340,124718,1
28.89158821105957,1283,2295,882,124837,1
28.931577444076538,933,2642,1383,125019,1
28.97162365913391,1213,3398,2318,125442,1
29.011634588241577,49,3716,2270,125522,1
29.05161428451538,-1169,3708,1740,125535,1
29.091602563858032,-1201,3247,1481,125441,1
29.131757020950317,-1013,2795,1157,125331,1
29.171592235565186,-386,2434,741,125241,1
29.211608171463013,-276,2551,427,125094,1
29.25155520439148,-79,2886,980,123946,1
29.290608406066895,1050,1962,1212,123512,1
29.330620288848877,910,902,1757,126286,1
29.370752811431885,-152,-1632,2385,126767,1
29.41061568260193,-852,-5147,2138,126455,1
29.450664043426514,-1365,-3054,2818,126178,1
29.49063277244568,-1446,51,2606,125590,1
29.530824422836304,-963,184,3149,125314,1
29.570594310760498,1254,-925,2721,125291,1
29.61063027381897,-389,-1241,2318,125556,1
29.651152849197388,-1061,-1568,1908,125483,1
29.689889192581177,-994,-1397,1727,125248,1
29.729642152786255,-468,-674,2172,124961,1
29.769644021987915,-21,361,2141,124812,1
29.8096764087677,296,1671,1704,124729,1
29.849639177322388,714,1835,1433,124475,1
29.889620304107666,1417,2325,1708,125053,1
29.929601430892944,1381,2403,1733,125490,1
29.969648361206055,417,2971,1022,125192,1
30.00964879989624,-692,3887,384,125328,1
30.049626350402832,-1015,3715,413,125506,1
30.088608264923096,-689,3158,861,125625,1
30.128599643707275,-251,2679,992,125437,1
30.16863751411438,-97,2773,1323,125366,1
30.208580255508423,395,2747,1434,125277,1
30.248596668243408,1372,2172,1756,125751,1
30.288576364517212,913,3,1590,126672,1
30.32876181602478,103,-2778,1971,126951,1
30.368820905685425,-1293,-5315,2517,126531,1
30.408621311187744,-397,-1979,3364,126067,1
30.448615550994873,-1821,522,3016,125523,1
30.488617420196533,-318,-201,2291,125404,1
30.527799367904663,946,-1482,2633,125874,1
30.567919492721558,-858,-1706,2633,125806,1
30.607611179351807,-658,-2115,2004,125627,1
30.64763593673706,-721,-1410,1418,125257,1
30.68760347366333,-432,28,1636,124730,1
30.727628231048584,70,576,1659,124495,1
30.768279552459717,223,1231,1939,124501,1
30.80762815475464,825,915,2213,124692,1
30.847740173339844,1429,1454,2371,124905,1
30.887606859207153,523,2486,1844,124653,1
30.927654266357422,-1001,2523,935,124571,1
30.96675992012024,-2174,3173,1273,124955,1
31.006712198257446,-1693,3298,2313,125582,1
31.046618461608887,-1039,2628,3030,125792,1
31.086613655090332,-754,2226,2846,125753,1
31.126606225967407,-300,1865,2458,125136,1
31.166640520095825,464,1425,1738,124537,1
31.206605911254883,1344,1027,1467,124966,1
31.246665477752686,827,-628,2251,126103,1
31.286643028259277,-648,-3037,2195,126128,1
31.326645135879517,-1396,-4440,2620,126072,1
31.365907192230225,-842,-1364,3546,125702,1
31.405607223510742,-1109,462,2735,125154,1
31.445617198944092,124,123,2527,124974,1
31.48561954498291,450,-854,2769,125074,1
31.52566123008728,-579,-1352,2381,125013,1
31.56564235687256,-613,-1146,1760,124552,1
31.605758666992188,-682,-260,1545,124213,1
31.645645141601562,-398,414,1510,123895,1
31.685611724853516,-472,920,2193,123820,1
31.7256121635437,69,1500,2018,123642,1
31.764822244644165,-173,1978,1850,123585,1
31.80471897125244,-42,2033,1922,123731,1
31.889700651168823,148,2201,2358,123913,1
31.890448808670044,277,2945,2389,123807,1
31.924611568450928,-182,3087,1892,124118,1
31.964632272720337,-499,2824,1482,124419,1
32.00460982322693,-191,2158,1096,124415,1
32.04468655586243,-245,2177,806,124234,1
32.084619998931885,-284,2440,1329,124203,1
32.124720335006714,424,2993,2235,124310,1
32.164618253707886,1628,2758,2448,125165,1
32.20360803604126,1732,224,1493,125914,1
32.24365711212158,-825,-3125,2589,125696,1
32.28364896774292,-1528,-6374,2258,125299,1
32.32370352745056,-1099,-1576,3416,125062,1
32.36377549171448,-2167,1264,4913,124570,1
32.40364742279053,1969,-971,2994,123804,1
32.443652629852295,-376,-2293,2765,124215,1
32.48363137245178,-835,-2416,1961,124228,1
32.523632764816284,-375,-1759,929,124013,1
32.563663721084595,-231,-547,1209,123216,1
32.602665185928345,1070,530,1385,123242,1
32.64261174201965,584,1383,1766,123486,1
32.6826274394989,-244,1639,1878,123681,1
32.72260928153992,68,2398,2847,123956,1
32.762624740600586,-297,3317,2836,123893,1
32.80265283584595,-370,4354,2473,123985,1
32.84264588356018,-1108,3313,2042,124112,1
32.88264036178589,-526,2615,1953,123991,1
32.92267918586731,-131,2016,1414,123729,1
32.962682485580444,232,2216,751,123731,1
33.0028121471405,289,2793,1594,124005,1
33.04165530204773,1348,2417,2242,124158,1
33.08163642883301,1280,1277,2325,124734,1
33.121681451797485,-525,-1476,2622,124933,1
33.16167593002319,-2366,-5329,2367,125122,1
33.2016921043396,-2417,-2569,2959,124828,1
33.241652488708496,-3225,1005,3828,124518,1
33.281739711761475,217,-515,3414,123830,1
33.32166934013367,2239,-1844,2652,124016,1
33.361807346343994,-502,-1272,2183,124142,1
33.40199375152588,-582,-1786,1462,123991,1
33.44066047668457,-882,-1031,1732,123671,1
33.48063254356384,-185,-217,2001,123652,1
33.52062463760376,227,716,1516,123611,1
33.56234312057495,140,1394,1345,123630,1
33.60127925872803,140,2014,1545,123680,1
33.64076471328735,190,2221,2312,123728,1
33.6806366443634,-86,2789,2180,123734,1
33.720659255981445,-696,3722,1578,123768,1
33.7606565952301,-764,4070,1447,123895,1
33.80068635940552,-991,3166,1372,124127,1
33.83965277671814,-691,2176,1203,124138,1
33.8797402381897,1,2185,1063,124031,1
33.91963315010071,190,2752,1274,124145,1
33.95961117744446,1618,2854,1574,124571,1
34.00030446052551,2168,1777,1923,125324,1
34.039711236953735,579,-1569,2348,125027,1
34.07967519760132,-4138,-6326,2320,124773,1
34.11966681480408,-2434,-2668,4409,124308,1
34.159677505493164,-1739,1685,5069,123946,1
34.199973583221436,1845,-1189,3100,123599,1
34.23966574668884,695,-1619,2326,123749,1
34.27920603752136,-113,-1514,1190,123885,1
34.31870651245117,-197,-939,1558,123893,1
34.35865354537964,-53,-559,2226,124013,1
34.39913082122803,228,-387,2034,124150,1
34.439499378204346,201,136,1955,124387,1
34.47862887382507,580,466,2032,124402,1
34.51863503456116,349,865,1828,124445,1
34.55884552001953,159,1053,1640,124563,1
34.59864044189453,77,1601,1768,124557,1
34.63866329193115,-550,2591,1943,124520,1
34.677653789520264,-1165,3640,1110,124327,1
34.717644453048706,-1001,4152,602,124235,1
34.75766921043396,-716,3720,768,124292,1
34.798112869262695,-676,3000,699,124292,1
34.837636947631836,-274,2386,539,123922,1
34.87790560722351,173,2849,383,123333,1
34.917649030685425,-6,3365,1692,122265,1
34.957683086395264,937,2337,1844,122746,1
34.99775528907776,1114,209,2148,123776,1
35.03768253326416,-1171,-2238,2353,123761,1
35.07769584655762,-1953,-4276,2429,123671,1
35.11668276786804,-1917,-1558,3981,123522,1
35.1567325592041,-2261,1572,4561,123470,1
35.197101354599,-525,391,2961,123335,1
35.237330198287964,1552,-703,2127,123536,1
35.276670932769775,-117,-1119,2283,123735,1
35.31728267669678,-677,-1379,1898,123777,1
35.35676336288452,-883,-994,1840,123704,1
35.39668083190918,-873,-426,1845,123477,1
35.436734676361084,-339,276,1543,123148,1
35.47670936584473,501,914,1555,122815,1
35.51664161682129,473,1304,1315,122908,1
35.55567741394043,-208,1688,1807,123126,1
35.595688581466675,-459,1990,2200,123155,1
35.63571000099182,-1259,2822,2055,123079,1
35.67576026916504,-1889,4355,1722,123010,1
35.715699434280396,-2386,4534,1996,123556,1
35.755680084228516,-1972,3470,2233,123679,1
35.79565906524658,-1077,2725,1600,123545,1
35.835652589797974,-255,2295,756,123419,1
35.87564301490784,-489,2806,1235,123634,1
35.91563081741333,51,2232,1127,123743,1
35.95463538169861,1487,676,853,124218,1
35.99469828605652,-394,-1592,3311,124347,1
36.03474950790405,38,-4606,1910,124198,1
36.07479190826416,-1292,-3857,3007,124058,1
36.11463212966919,-856,-292,2685,123787,1
36.15471124649048,-516,-78,1854,123599,1
36.194664001464844,449,-793,2651,123830,1
36.23474740982056,-272,-1795,3001,123864,1
36.27478003501892,-649,-2325,2404,123729,1
36.31477642059326,-628,-1837,1395,123593,1
36.3546941280365,-542,-505,1382,123500,1
36.39367628097534,-71,705,1602,123298,1
36.43387508392334,1076,1375,1659,123306,1
36.473673582077026,233,1977,2148,123415,1
36.513673067092896,-822,2188,1815,123290,1
36.5539755821228,-3086,3369,876,123149,1
36.593708753585815,-3313,5521,485,123130,1
36.634526014328,-3048,5200,793,123292,1
36.67378497123718,-1251,3511,993,123414,1
36.71373462677002,-109,2590,445,123454,1
36.75361776351929,627,2971,-290,123158,1
36.792728900909424,602,3198,238,123156,1
36.83275651931763,-89,2837,1356,123718,1
36.87268042564392,528,-544,1623,124521,1
36.912682056427,-378,-2865,4037,124583,1
36.952725648880005,238,-5422,2836,124104,1
36.992671966552734,380,-2266,3141,123865,1
37.03282165527344,-1008,419,2863,123450,1
37.07296538352966,1033,-233,2242,123039,1
37.112802028656006,786,-1216,2546,123267,1
37.152734994888306,-84,-1538,2282,123388,1
37.192694664001465,-517,-1967,1706,123369,1
37.2320499420166,-820,-1410,1773,123244,1
37.27170491218567,-591,-392,1638,123106,1
37.31166863441467,-446,353,1552,123109,1
37.351728677749634,-109,739,2094,123446,1
37.39180064201355,555,1960,2945,123635,1
37.43177676200867,231,2603,3365,123577,1
37.471736907958984,-1759,2936,2466,122951,1
37.51168942451477,-2393,4125,1404,122655,1
37.551687240600586,-1939,3801,1729,122798,1
37.59167957305908,-1230,2851,1682,122848,1
37.63172101974487,-620,2387,1419,122797,1
37.67075228691101,-152,2635,851,122710,1
37.71066093444824,-43,2981,842,122900,1
37.75066256523132,-5,2583,1429,123317,1
37.790690660476685,478,1105,2210,123600,1
37.83067035675049,82,-1748,2226,123446,1
37.87069773674011,-1703,-4946,2525,123421,1
37.910693407058716,-2141,-4084,3555,123243,1
37.950690507888794,-2105,409,3392,123062,1
37.99067759513855,-1936,1235,3123,122943,1
38.030688524246216,1353,-694,1735,122760,1
38.069679737091064,1198,-543,1748,122961,1
38.10968255996704,-433,-798,2270,123043,1
38.149704694747925,-589,-1644,2287,123065,1
38.18974161148071,-1064,-1800,2001,122881,1
38.22968292236328,-824,-1465,1617,122591,1
38.269731521606445,-444,-285,1715,122361,1
38.30967402458191,87,719,1595,122384,1
38.34968161582947,650,1276,2314,122505,1
38.38968873023987,842,2029,3219,122672,1
38.42992830276489,1327,3866,3570,122834,1
38.46972966194153,381,5051,2866,122518,1
38.508718967437744,-205,3951,1410,122435,1
38.548694133758545,-31,2384,1007,122828,1
38.588677644729614,373,2014,837,122695,1
38.62886714935303,777,2462,704,122570,1
38.66873526573181,893,2863,1543,122057,1
38.708728075027466,1277,2243,2043,122577,1
38.74868607521057,965,419,1905,123784,1
38.78873133659363,-947,-2470,2756,124242,1
38.82875442504883,-2163,-5149,1963,124225,1
38.868770599365234,-2206,-2460,3345,123824,1
38.90769124031067,-1807,478,3552,123589,1
38.94771337509155,-1018,338,3732,123376,1
38.98771572113037,1404,-1524,2960,123292,1
39.027753591537476,-239,-1737,2454,123562,1
39.067728757858276,-1027,-1926,1695,123436,1
39.107706785202026,-479,-1311,1182,123107,1
39.148303270339966,-338,-656,1301,122918,1
39.18772578239441,-490,183,1832,122836,1
39.227808237075806,-322,790,2000,122931,1
39.268155097961426,-413,1884,2656,123110,1
39.30768656730652,-66,2323,2980,123161,1
39.34669780731201,-922,2850,2778,122862,1
39.387296199798584,-1262,4877,1750,122416,1
39.426785469055176,-1091,5244,1390,122360,1
39.46680402755737,-1290,3420,1325,122527,1
39.50669193267822,-1186,2388,991,122477,1
39.5467426776886,-633,2308,1028,122225,1
39.586753845214844,-494,2711,1081,122134,1
39.62673473358154,219,2266,1527,122282,1
39.66678524017334,1805,540,2182,122691,1
39.70668959617615,-40,-2552,2372,122701,1
39.745699644088745,-744,-5683,2424,122524,1
39.78575944900513,-2167,-2647,3729,122762,1
39.82579731941223,-2138,265,2757,122659,1
39.865830183029175,-1300,974,2409,122456,1
39.905710220336914,1187,-336,2432,122591,1
39.94573259353638,381,-775,2249,122828,1
39.9857714176178,-555,-1153,2320,122785,1
40.025707483291626,-547,-1136,1646,122589,2
40.06577825546265,-840,-1020,1462,122324,2
40.1056911945343,-543,-246,1820,122091,2
40.14571785926819,-516,493,1608,121979,2
40.18470335006714,-484,1078,1536,121731,2
40.22487831115723,-590,1979,1905,121608,2
40.26470327377319,-312,2200,2269,121694,2
40.3047149181366,-199,2782,2554,121641,2
40.34471011161804,-136,3953,2560,121696,2
40.38476014137268,-959,3679,2235,122047,2
40.424806118011475,-1317,2008,1949,122296,2
40.46475553512573,-999,1151,1616,122357,2
40.504693269729614,-875,464,1484,122342,2
40.54470705986023,-952,223,1405,122355,2
40.58477210998535,-1242,72,1589,122393,2
40.62376284599304,-1301,-135,1634,122266,2
40.66374659538269,-964,68,1902,122136,2
40.70369052886963,-556,372,1950,122065,2
40.74381494522095,-479,497,1847,122009,2
40.78369188308716,-479,580,1691,121939,2
40.823691606521606,-592,777,1642,121876,2
40.86369609832764,-702,944,1706,121836,2
40.90374159812927,-873,983,1630,121860,2
40.94372200965881,-964,1059,1652,121839,2
40.983834981918335,-1054,1151,1710,121887,2
41.02273511886597,-957,1192,1706,121933,2
41.062721490859985,-913,1198,1582,121975,2
41.10271072387695,-841,1178,1401,122035,2
41.14358901977539,-817,1156,1285,122112,2
41.182774782180786,-754,1118,1292,122209,2
41.222736120224,-783,1106,1426,122252,2
41.26283049583435,-767,1091,1584,122175,2
41.30282402038574,-778,1070,1647,122100,2
41.343125343322754,-786,1080,1632,122043,2
41.38276505470276,-752,1071,1550,121985,2
41.422754526138306,-734,1078,1509,122023,2
41.46172523498535,-795,1083,1550,122041,2
41.501718282699585,-783,1051,1497,122071,2
41.54177689552307,-768,1016,1502,122118,2
41.5817596912384,-716,1054,1590,122150,2
41.62178921699524,-722,1034,1586,122213,2
41.66176724433899,-740,1034,1573,122248,2
41.70176076889038,-719,1050,1562,122184,2
41.74174928665161,-707,1115,1591,122032,2
41.7818706035614,-703,1083,1478,121633,2
41.82174301147461,-700,1119,1444,117283,2
41.888893604278564,-876,722,1344,40786,2
41.900768518447876,-852,1017,1301,8620,2
41.940762519836426,-826,1134,1478,3626,2
41.98073625564575,-731,1080,1654,2302,2
42.02076005935669,-746,1032,1620,1953,2
42.06070399284363,-714,1019,1615,1754,2
42.10075664520264,-681,1034,1590,1634,2
42.140708684921265,-645,949,1511,1597,2
42.18071699142456,-722,884,1602,1435,2
42.220701932907104,-678,845,1743,1268,2
42.260693073272705,-649,826,1838,1196,2
42.29967999458313,-660,808,1918,1143,2
42.339759826660156,-674,775,1941,1111,2
42.379695892333984,-680,771,1970,1105,2
42.41975426673889,-657,764,1930,1108,2
42.45970678329468,-530,799,2005,1572,2
42.4998996257782,-731,818,1969,2134,2
42.5397093296051,-418,794,1876,4051,2
42.579702377319336,-539,863,1800,13665,2
42.61975574493408,-602,848,1711,82471,2
42.66009759902954,-774,899,1690,114334,2
42.69877600669861,-626,1000,1730,115476,2
42.73876690864563,-759,963,1836,116159,2
42.77874183654785,-795,873,1703,115845,2
42.818734884262085,-719,994,1881,115268,2
42.85887050628662,-701,891,1756,114894,2
42.89926028251648,-637,891,1726,114779,2
42.93872952461243,-539,920,1696,115299,2
42.97879505157471,-486,880,1567,116159,2
43.01878023147583,-526,951,1530,116292,2
43.05881118774414,-554,1053,1517,116526,2
43.09873342514038,-707,1017,1341,116845,2
43.13786339759827,-823,1147,1569,117101,2
43.177740812301636,-783,1105,1602,117278,2
43.21773600578308,-815,1040,1533,117484,2
43.257885456085205,-713,1095,1650,117647,2
43.297776222229004,-706,1061,1691,117775,2
43.33776259422302,-723,1024,1638,117732,2
43.37780833244324,-668,1039,1701,117732,2
43.41778326034546,-631,1033,1621,117830,2
43.45774006843567,-634,1051,1526,117987,2
43.49790048599243,-609,1079,1644,118236,2
43.53684616088867,-618,1019,1535,118507,2
43.57677221298218,-592,1077,1650,118758,2
43.616732358932495,-527,1073,1626,118990,2
43.65675950050354,-583,1098,1545,119150,2
43.696781158447266,-590,1122,1544,119294,2
43.736738204956055,-600,1113,1529,119518,2
43.776753187179565,-625,1153,1584,119631,2
43.81673812866211,-611,1147,1585,119711,2
43.856738567352295,-631,1129,1549,119892,2
43.896751165390015,-606,1137,1568,119993,2
43.93677854537964,-615,1126,1595,120106,2
43.97574210166931,-616,1087,1522,120200,2
44.01573395729065,-533,1122,1570,120258,2
44.05576252937317,-594,1119,1564,120318,2
44.0959038734436,-657,1068,1484,120378,2
44.135740756988525,-656,1113,1707,120400,2
44.175793409347534,-665,1060,1682,120406,2
44.21572279930115,-620,1051,1624,120415,2
44.25574064254761,-551,1088,1624,120399,2
44.29577922821045,-582,1053,1489,120347,2
44.33575463294983,-669,1087,1582,120358,2
44.37474465370178,-756,1055,1566,120341,2
44.414748668670654,-705,1055,1595,120324,2
44.45474338531494,-730,1052,1662,120305,2
44.49478626251221,-699,983,1626,120321,2
44.53478670120239,-620,965,1616,120334,2
44.574790954589844,-564,968,1684,120315,2
44.61473369598389,-528,925,1533,120264,2
44.654857873916626,-604,997,1595,120239,2
44.6947808265686,-666,1002,1630,120224,2
44.73488450050354,-756,995,1564,120228,2
44.774757385253906,-811,1061,1799,120238,2
44.81380820274353,-800,1016,1781,120199,2
44.853854179382324,-702,1000,1778,120168,2
44.8937623500824,-580,1017,1795,120163,2
44.93373703956604,-615,982,1590,120181,2
44.97380232810974,-703,1049,1605,120194,2
45.01377725601196,-692,1030,1551,120206,2
45.05385994911194,-682,998,1503,120182,2
45.093801498413086,-642,1031,1564,120181,2
45.13403940200806,-679,1048,1519,120163,2
45.17375683784485,-727,1081,1584,120193,2
45.212745666503906,-703,1083,1674,120217,2
45.25276303291321,-717,1045,1589,120231,2
45.292845249176025,-715,1029,1503,120253,2
45.332834005355835,-717,1037,1522,120276,2
45.37274646759033,-732,1008,1425,120317,2
45.41280484199524,-788,1014,1433,120291,2
45.453105211257935,-855,1042,1627,120208,2
45.49272084236145,-883,1002,1634,120145,2
45.5332236289978,-837,945,1631,120106,2
45.57272386550903,-877,945,1629,120131,2
45.61280155181885,-911,930,1627,120215,2
45.651753664016724,-818,876,1630,120254,2
45.69176912307739,-781,855,1731,120285,2
45.73189377784729,-763,813,1665,120320,2
45.77183651924133,-797,835,1726,120326,2
45.81185030937195,-851,830,1728,120334,2
45.85180640220642,-850,777,1709,120317,2
45.891802072525024,-805,818,1802,120285,2
45.9323890209198,-755,785,1675,120250,2
45.97176766395569,-756,793,1638,120214,2
46.011751651763916,-767,791,1663,120234,2
46.05076742172241,-825,789,1676,120262,2
46.09080266952515,-877,809,1770,120240,2
46.131059408187866,-828,792,1730,120182,2
46.17080569267273,-772,794,1717,120162,2
46.21079707145691,-765,803,1738,120157,2
46.25075888633728,-773,791,1702,120167,2
46.29078435897827,-790,803,1734,120210,2
46.33113718032837,-826,803,1764,120205,2
46.37085318565369,-790,787,1772,120216,2
46.41076946258545,-760,795,1724,120257,2
46.45081281661987,-727,799,1652,120291,2
46.48974561691284,-741,804,1621,120326,2
46.531001567840576,-787,803,1665,120368,2
46.56976532936096,-779,823,1688,120417,2
46.6097731590271,-757,818,1665,120447,2
46.64976716041565,-794,874,1742,120473,2
46.68983554840088,-878,908,1860,120459,2
46.72984027862549,-904,976,1879,120236,2
46.769906997680664,-932,1014,1597,120074,2
46.81055998802185,-958,1063,1446,119999,2
46.85066032409668,-727,1102,1752,119959,2
46.888749837875366,-717,1073,2043,119969,2
46.92876839637756,-717,879,1904,120042,2
46.96880292892456,-586,743,1659,120095,2
47.00882053375244,-392,720,1350,120154,2
47.04882502555847,-305,760,1202,120230,2
47.0888147354126,-214,845,1229,120286,2
47.128806352615356,-270,985,1261,120343,2
47.16877222061157,-467,1112,1318,120389,2
47.20877385139465,-694,1254,1628,120459,2
47.248790979385376,-871,1358,1915,120509,2
47.288793087005615,-953,1349,1987,120554,2
47.32807183265686,-820,1286,1805,120421,2
47.36777067184448,-627,1181,1666,120096,2
47.407799243927,-629,1137,1563,120000,2
47.44795894622803,-821,1150,1630,119988,2
47.48781967163086,-803,1116,1673,119973,2
47.52778959274292,-678,1015,1625,119979,2
47.567838191986084,-546,903,1505,120010,2
47.60779571533203,-338,856,1355,120057,2
47.64781904220581,-386,916,1552,120085,2
47.68777537345886,-504,946,1900,120147,2
47.726760149002075,-555,907,1970,120208,2
47.7668182849884,-476,879,1818,120292,2
47.80681490898132,-433,889,1628,120389,2
47.84683346748352,-447,886,1479,120505,2
47.88682460784912,-457,912,1429,120586,2
47.92676877975464,-466,951,1526,120609,2
47.966922998428345,-527,1009,1713,120309,2
48.00680136680603,-579,1038,1852,119941,2
48.04679751396179,-647,1035,1798,119849,2
48.08682990074158,-653,1085,1777,119838,2
48.12679481506348,-761,1084,1783,119851,2
48.16576910018921,-857,1035,1808,119908,2
48.20628261566162,-824,949,1872,119977,2
48.245832443237305,-661,816,1762,120024,2
48.285765409469604,-407,786,1607,120063,2
48.32579779624939,-341,813,1430,120110,2
48.36665058135986,-527,914,1481,120174,2
48.40585803985596,-767,941,1706,120200,2
48.44591808319092,-870,940,1969,120209,2
48.48580074310303,-715,871,1968,120219,2
48.52584433555603,-512,843,1820,120303,2
48.56482195854187,-430,799,1698,120333,2
48.60477805137634,-508,843,1771,119996,2
48.644790172576904,-555,847,1787,119830,2
48.684834718704224,-564,817,1840,119811,2
48.724817991256714,-524,846,1871,119814,2
48.76517915725708,-502,885,1765,119813,2
48.80484628677368,-455,908,1602,119849,2
48.8448281288147,-458,951,1589,119876,2
48.88511085510254,-548,960,1673,119889,2
48.9247772693634,-570,905,1681,119934,2
48.96490454673767,-552,885,1802,119985,2
49.003782987594604,-539,867,1813,120038,2
49.04378962516785,-475,826,1723,120095,2
49.08383321762085,-373,886,1748,120159,2
49.123825550079346,-400,972,1739,120221,2
49.16387462615967,-520,973,1760,120300,2
49.203797340393066,-626,963,1873,120293,2
49.24380016326904,-657,867,1913,120014,2
49.28383278846741,-545,782,1861,119825,2
49.323872327804565,-399,753,1780,119759,2
49.363802671432495,-377,670,1732,119792,2
49.40298247337341,-317,710,1716,119819,2
49.44280171394348,-395,760,1623,119856,2
49.482889890670776,-640,764,1639,119931,2
49.522788763046265,-843,739,1845,119976,2
49.56281042098999,-829,748,1880,120023,2
49.60278511047363,-555,773,1697,120014,2
49.64281988143921,-307,845,1615,120040,2
49.68283224105835,-414,917,1543,120055,2
49.722801208496094,-447,998,1529,120083,2
49.762850522994995,-466,1138,1685,120144,2
49.802815437316895,-715,971,1933,120179,2
49.84180450439453,-612,1013,2169,120183,2
49.88186240196228,-437,1115,1837,120045,2
49.921812772750854,-487,1185,1458,119937,2
49.961856842041016,-563,1260,1674,119927,2
50.001842975616455,-680,1179,1910,119939,2
50.041876792907715,-703,1114,1939,119942,2
50.08184766769409,-621,1078,1766,119937,2
50.12180995941162,-560,1091,1611,119930,2
50.161805629730225,-540,1113,1525,119934,2
50.20187330245972,-612,1068,1580,119973,2
50.24081516265869,-672,1036,1661,120012,2
50.28085207939148,-605,991,1786,120051,2
50.32093954086304,-462,954,1874,120101,2
50.36079216003418,-335,894,1889,120152,2
50.40080976486206,-215,784,1920,120195,2
50.440834045410156,-25,728,1941,120208,2
50.48079180717468,-14,692,1671,120217,2
50.520862102508545,-66,771,1553,120107,2
50.56083965301514,-99,917,1493,119972,2
50.600849628448486,-244,1037,1409,119922,2
50.64080357551575,-350,1119,1511,119969,2
50.679824352264404,-394,1086,1881,120010,2
50.71985149383545,-451,958,1961,120047,2
50.75987267494202,-427,869,1897,120083,2
50.79980492591858,-202,902,1859,120104,2
50.8398175239563,-50,880,1745,120113,2
50.879820108413696,-94,891,1806,120133,2
50.9198203086853,-213,901,1955,120128,2
50.959813356399536,-391,838,1891,120136,2
50.99989199638367,-396,894,1898,120139,2
51.039851665496826,-295,907,1756,120183,2
51.07891273498535,-257,954,1702,120249,2
51.118849992752075,-258,980,1714,120305,2
51.15882635116577,-252,949,1798,120248,2
51.19880676269531,-258,998,1915,120163,2
51.23895788192749,-317,944,1745,120143,2
51.27886438369751,-264,952,1680,120158,2
51.319400787353516,-279,1029,1647,120162,2
51.358803033828735,-441,1026,1516,120157,2
51.399147510528564,-576,1038,1477,120179,2
51.43884038925171,-659,1057,1541,120198,2
51.4788863658905,-651,1074,1581,120220,2
51.5178165435791,-514,1184,1742,120246,2
51.55784010887146,-466,1270,1745,120266,2
51.59795665740967,-456,1272,1772,120312,2
51.63784217834473,-437,1237,1792,120368,2
51.677868366241455,-567,1183,1680,120405,2
51.71789312362671,-610,1252,1454,120434,2
51.75791883468628,-618,1271,1372,120367,2
51.79871416091919,-651,1241,1359,120159,2
51.83781361579895,-704,1176,1569,120108,2
51.87786149978638,-689,1080,1713,120105,2
51.91782259941101,-581,982,1774,120128,2
51.95686435699463,-457,940,1803,120140,2
51.997018814086914,-350,940,1732,120174,2
52.036824226379395,-316,952,1659,120216,2
52.077460050582886,-360,1047,1820,120230,2
52.117902994155884,-467,1030,1860,120252,2
52.156859397888184,-498,1027,1816,120270,2
52.197036266326904,-467,1057,1675,120232,2
52.236844539642334,-437,1044,1609,120248,2
52.27682089805603,-543,1019,1923,120261,2
52.3168089389801,-484,933,2015,120281,2
52.35584902763367,-295,952,1563,120218,2
52.39605903625488,-167,968,1304,120074,2
52.43590760231018,-180,1078,1465,120025,2
52.47588038444519,-392,1066,1525,120033,2
52.51581645011902,-578,1057,1555,120059,2
52.5680992603302,-571,1102,1726,120071,2
52.59609651565552,-501,1096,1615,120091,2
52.635865926742554,-392,1119,1384,120097,2
52.675907135009766,-360,1274,1323,120096,2
52.71586036682129,-559,1383,1399,120098,2
52.755876302719116,-654,1363,1509,120158,2
52.795119762420654,-764,1232,1637,120206,2
52.834880352020264,-812,1195,1774,120261,2
52.8752715587616,-673,1148,1648,120288,2
52.91485333442688,-579,1264,1397,120305,2
52.95487976074219,-620,1379,1228,120301,2
52.99505615234375,-810,1424,1318,120126,2
53.03498458862305,-982,1343,1424,120027,2
53.075068950653076,-1157,1253,1592,120005,2
53.114851236343384,-1079,1185,1569,119986,2
53.15484833717346,-785,1094,1405,119985,2
53.19419503211975,-683,1049,1432,120050,2
53.23385763168335,-649,1047,1562,120106,2
53.27382206916809,-785,964,1687,120138,2
53.31387138366699,-853,860,1743,120181,2
53.35387396812439,-750,852,1685,120196,2
53.39380979537964,-711,833,1639,120234,2
53.43387222290039,-839,853,1651,120216,2
53.47405195236206,-696,949,1618,120183,2
53.513854026794434,-611,997,1661,120233,2
53.55384540557861,-633,908,1749,120247,2
53.593849897384644,-641,840,1776,120194,2
53.632824182510376,-636,888,1666,120102,2
53.67287993431091,-581,882,1478,120094,2
53.71286129951477,-545,928,1398,120119,2
53.752872705459595,-534,1000,1453,120134,2
53.79288077354431,-510,1012,1587,120186,2
53.83287334442139,-602,1044,1728,120220,2
53.87283229827881,-664,1034,1892,120235,2
53.912879943847656,-695,947,1925,120236,2
53.95284056663513,-684,902,1948,120199,2
53.992844581604004,-625,824,1847,120237,2
54.03182363510132,-570,833,1710,120276,2
54.07187366485596,-526,927,1529,120307,2
54.11188578605652,-583,920,1437,120356,2
54.15182900428772,-703,867,1557,120408,2
54.19180870056152,-757,763,1771,120350,2
54.23187184333801,-752,672,1940,120259,2
54.27212071418762,-660,579,1939,120211,2
54.31185030937195,-527,587,1854,120155,2
54.35186243057251,-401,641,1820,120146,2
54.39185929298401,-385,711,1789,120145,2
54.43232536315918,-431,779,1691,120165,2
54.47116780281067,-488,974,1648,120192,2
54.510849475860596,-631,1045,1659,120213,2
54.55089330673218,-926,1031,1824,120265,2
54.59088969230652,-1098,943,1897,120312,2
54.63112282752991,-1011,799,1743,120340,2
54.67124629020691,-751,705,1653,120337,2
54.71089315414429,-511,688,1588,120324,2
54.75088834762573,-469,697,1578,120302,2
54.79085874557495,-570,779,1732,120207,2
54.83099389076233,-676,810,1763,120134,2
54.86988639831543,-770,743,1637,120131,2
54.90991830825806,-818,750,1656,120143,2
54.949875593185425,-815,766,1735,120169,2
54.98984718322754,-731,833,1855,120210,2
55.030779123306274,-779,949,1806,120249,2
55.069828748703,-988,924,1784,120319,2
55.109856367111206,-973,863,1790,120366,2
55.14989686012268,-871,812,1660,120382,2
55.189863204956055,-672,823,1504,120452,2
55.23041486740112,-585,956,1542,120519,2
55.26986265182495,-764,993,1608,120718,2
55.30917048454285,-851,1013,1818,120863,2
55.3497040271759,-668,982,1906,120899,2
55.38926911354065,-533,902,1789,120618,2
55.42887091636658,-768,894,1720,120437,2
55.4688994884491,-868,767,1711,120439,2
55.5089054107666,-686,686,1800,120182,2
55.54887580871582,-448,734,1842,119914,2
55.588908433914185,-398,742,1713,119826,2
55.628852128982544,-487,798,1612,119903,2
55.66889786720276,-562,837,1566,120068,2
55.70889329910278,-517,867,1702,120203,2
55.7478723526001,-516,879,1831,120228,2
55.787845849990845,-617,914,1926,120302,2
55.828028202056885,-663,941,1864,120414,2
55.86787128448486,-558,1008,1855,120544,2
55.907917976379395,-445,960,1851,120643,2
55.94790530204773,-610,922,1505,120599,2
55.98785948753357,-601,1118,1551,120256,2
56.028374910354614,-672,1129,1463,119884,2
56.06791162490845,-785,1131,1339,119810,2
56.10785722732544,-709,1176,1445,119822,2
56.14688777923584,-695,1165,1487,119882,2
56.18692445755005,-751,1083,1411,120014,2
56.227110147476196,-698,1094,1620,120155,2
56.26733040809631,-634,1057,1589,120260,2
56.30690360069275,-557,1058,1449,120341,2
56.34689021110535,-510,1119,1530,120395,2
56.38706588745117,-463,1097,1640,120437,2
56.42689561843872,-616,1071,1681,120447,2
56.466858863830566,-742,1088,1801,120427,2
56.50685930252075,-807,1029,1649,120405,2
56.54687690734863,-804,1039,1609,120433,2
56.58587288856506,-718,998,1570,120476,2
56.62586688995361,-721,975,1561,120432,2
56.66591262817383,-700,960,1608,120398,2
56.70588517189026,-695,1002,1697,120389,2
56.7458713054657,-769,1006,1643,120402,2
56.78609800338745,-786,1067,1649,120385,2
56.82591485977173,-715,1069,1566,120363,2
56.86586093902588,-768,1058,1453,120368,2
56.906089544296265,-682,1101,1530,120346,2
56.94586801528931,-680,1100,1537,120395,2
56.98509645462036,-624,1074,1513,120421,2
57.02489471435547,-759,1159,1599,120470,2
57.06490612030029,-883,1112,1365,120511,2
57.105053186416626,-1028,1079,1231,120576,2
57.14486765861511,-906,1078,1354,120603,2
57.18488168716431,-920,1076,1414,120616,2
57.22491502761841,-934,1083,1483,120561,2
57.26566457748413,-920,1050,1559,120473,2
57.30490303039551,-843,1074,1661,120412,2
57.345065116882324,-896,1053,1521,120390,2
57.38506722450256,-863,1075,1588,120431,2
57.423882722854614,-906,1083,1545,120491,2
57.46423864364624,-902,1068,1447,120552,2
57.50422120094299,-883,1109,1568,120591,2
57.5439612865448,-918,1093,1508,120620,2
57.58395838737488,-971,1117,1390,120644,2
57.62390637397766,-982,1121,1414,120657,2
57.66436767578125,-952,1098,1367,120650,2
57.70419788360596,-997,1112,1331,120615,2
57.74428606033325,-944,1114,1398,120616,2
57.78407526016235,-916,1115,1351,120597,2
57.824135065078735,-968,1140,1391,120628,2
57.86325764656067,-951,1168,1474,120590,2
57.90308904647827,-999,1145,1355,120580,2
57.942912340164185,-959,1131,1298,120593,2
57.98291254043579,-912,1113,1314,120596,2
58.022910356521606,-940,1122,1278,120621,2
58.063096046447754,-927,1147,1356,120640,2
58.10293483734131,-1000,1148,1382,120624,2
58.142940521240234,-1037,1141,1433,120606,2
58.18308424949646,-956,1123,1383,120598,2
58.22290658950806,-945,1139,1353,120609,2
58.262123584747314,-943,1150,1318,120639,2
58.30189275741577,-930,1171,1262,120656,2
58.34207510948181,-957,1208,1250,120660,2
58.38208079338074,-996,1243,1163,120673,2
58.42190670967102,-1050,1301,1226,120680,2
58.46196627616882,-1081,1318,1314,120650,2
58.50208497047424,-1078,1316,1343,120532,2
58.54189729690552,-1012,1296,1266,120427,2
58.581889152526855,-983,1278,1178,120384,2
58.62193059921265,-1039,1275,1182,120375,2
58.66199707984924,-1094,1264,1226,120420,2
58.70092010498047,-1201,1224,1156,120476,2
58.740917444229126,-1239,1235,1321,120532,2
58.781075954437256,-1178,1202,1114,120559,2
58.82096815109253,-1060,1213,1031,120594,2
58.86115288734436,-1041,1229,1153,120611,2
58.901071310043335,-1013,1204,1099,120620,2
58.94091439247131,-1037,1207,1161,120603,2
58.98089575767517,-1028,1231,1275,120601,2
59.02089715003967,-1031,1238,1232,120602,2
59.06105303764343,-1110,1263,1366,120601,2
59.10022473335266,-1075,1269,1155,120623,2
59.14007353782654,-1048,1284,1126,120644,2
59.18010711669922,-1086,1290,1174,120624,2
59.219895124435425,-1128,1281,1136,120523,2
59.26009941101074,-1129,1271,1187,120458,2
59.29992079734802,-1107,1263,1118,120412,2
59.33989763259888,-1110,1267,1136,120364,2
59.37990617752075,-1139,1246,1171,120364,2
59.41989707946777,-1135,1226,1102,120399,2
59.46015000343323,-1101,1233,1156,120449,2
59.49907445907593,-1042,1211,1179,120494,2
59.53891181945801,-1037,1234,1175,120532,2
59.578911781311035,-1034,1237,1272,120565,2
59.61890387535095,-1022,1238,1189,120598,2
59.6589035987854,-1051,1227,1184,120632,2
59.69889950752258,-1036,1244,1200,120642,2
59.73890042304993,-1032,1236,1147,120639,2
59.779037952423096,-966,1243,1237,120611,2
59.81892704963684,-966,1188,1222,120608,2
59.858906984329224,-1069,1219,1247,120543,2
59.899561166763306,-1095,1236,1292,120353,2
59.93809223175049,-1095,1223,1150,120212,2
59.97791385650635,-1104,1257,1193,120183,2
60.01793575286865,-1090,1256,1223,120196,2
60.05790877342224,-1058,1242,1154,120232,2
60.09792423248291,-1109,1269,1272,120316,2
60.137917041778564,-1109,1222,1236,120374,2
60.17798972129822,-1123,1218,1239,120399,2
60.21807098388672,-1078,1216,1266,120403,2
60.257954359054565,-1055,1186,1181,120423,2
60.298842668533325,-1036,1187,1245,120492,2
60.3371376991272,-1023,1206,1253,120507,2
60.377052783966064,-1041,1212,1252,120557,2
60.41690254211426,-1054,1222,1295,120588,2
60.45694351196289,-1036,1208,1240,120632,2
60.49716305732727,-1032,1212,1243,120652,2
60.53712868690491,-1056,1219,1266,120635,2
60.577139139175415,-1094,1211,1166,120435,2
60.61702752113342,-1081,1223,1232,120178,2
60.657055139541626,-1094,1218,1237,120085,2
60.697052240371704,-1101,1227,1162,120076,2
60.737014055252075,-1079,1242,1308,120090,2
60.77594184875488,-1062,1215,1213,120173,2
60.816070795059204,-1051,1223,1239,120268,2
60.855990409851074,-1026,1218,1256,120345,2
60.896061420440674,-1045,1201,1228,120413,2
60.9360888004303,-1017,1201,1245,120464,2
60.976025342941284,-1045,1207,1224,120516,2
61.01590943336487,-1056,1225,1254,120542,2
61.056116819381714,-1037,1216,1233,120541,2
61.09684371948242,-1054,1217,1172,120553,2
61.13590669631958,-1030,1223,1282,120580,2
61.17506408691406,-1046,1205,1215,120615,2
61.21512770652771,-1013,1213,1220,120654,2
61.25510215759277,-1052,1212,1256,120633,2
61.29541063308716,-1051,1207,1236,120461,2
61.334959268569946,-1057,1226,1262,120239,2
61.375110149383545,-1050,1208,1245,120183,2
61.41494011878967,-1048,1223,1255,120168,2
61.45568060874939,-1046,1231,1309,120153,2
61.495102882385254,-1044,1210,1223,120214,2
61.53494167327881,-1050,1212,1265,120284,2
61.575642347335815,-1029,1212,1256,120369,2
61.613911628723145,-1043,1213,1212,120409,2
61.65408730506897,-1023,1199,1215,120464,2
61.69393539428711,-1045,1206,1206,120536,2
61.73391795158386,-1047,1228,1240,120579,2
61.774702310562134,-1068,1207,1229,120633,2
61.814117193222046,-1060,1213,1236,120652,2
61.85447573661804,-1042,1219,1282,120652,2
61.89396286010742,-1059,1214,1230,120636,2
61.93412232398987,-1044,1210,1216,120623,2
61.97410249710083,-1064,1210,1273,120521,2
62.01392316818237,-1077,1199,1216,120230,2
62.05295014381409,-1083,1209,1298,120123,2
62.093175172805786,-1081,1185,1242,120119,2
62.13293123245239,-1032,1198,1265,120121,2
62.1731276512146,-1028,1174,1281,120172,2
62.21392297744751,-1017,1179,1221,120266,2
62.25291728973389,-1009,1215,1239,120326,2
62.292922019958496,-1056,1208,1211,120343,2
62.333091735839844,-1087,1242,1276,120369,2
62.3729362487793,-1111,1207,1276,120389,2
62.41309857368469,-1112,1197,1276,120449,2
62.451950788497925,-1057,1156,1181,120520,2
62.49196982383728,-998,1184,1193,120573,2
62.532124757766724,-1064,1219,1268,120624,2
62.57283329963684,-1133,1212,1363,120660,2
62.61212778091431,-1003,1163,1271,120680,2
62.651989221572876,-892,1179,1091,120714,2
62.709768533706665,-955,1255,1178,120684,2
62.73299169540405,-1147,1269,1298,120352,2
62.77306604385376,-1292,1270,1527,120101,2
62.8121120929718,-1168,1188,1389,120040,2
62.852112770080566,-1029,1149,1238,120040,2
62.8913676738739,-999,1110,1231,120041,2
62.93110251426697,-1024,1103,1261,120108,2
62.97114396095276,-971,1102,1217,120203,2
63.01109528541565,-947,1140,1200,120277,2
63.050955057144165,-967,1166,1174,120323,2
63.09093737602234,-1011,1208,1212,120373,2
63.13165593147278,-1080,1254,1329,120413,2
63.1711049079895,-1183,1243,1455,120426,2
63.21094989776611,-1142,1203,1437,120432,2
63.251004695892334,-958,1185,1328,120463,2
63.29094934463501,-880,1182,1191,120539,2
63.330118894577026,-920,1208,1230,120604,2
63.37074899673462,-1036,1189,1176,120648,2
63.410104513168335,-1149,1196,1245,120683,2
63.449965953826904,-1186,1187,1270,120700,2
63.49001717567444,-1123,1176,1265,120733,2
63.530617237091064,-1018,1181,1292,120731,2
63.56997585296631,-960,1177,1294,120447,2
63.61012315750122,-941,1168,1296,120099,2
63.650105237960815,-997,1155,1288,120007,2
63.69007444381714,-1016,1162,1303,119992,2
63.730103969573975,-1031,1172,1342,120018,2
63.76895308494568,-1017,1184,1369,120079,2
63.809091091156006,-981,1190,1322,120176,2
63.84911847114563,-999,1168,1294,120265,2
63.88895869255066,-1008,1168,1274,120308,2
63.92911338806152,-1048,1182,1303,120358,2
63.969717264175415,-1068,1174,1278,120392,2
64.0093207359314,-1091,1166,1284,120428,2
64.04894876480103,-1083,1159,1301,120465,2
64.08910989761353,-1039,1153,1267,120509,2
64.12961173057556,-999,1155,1306,120573,2
64.16810202598572,-993,1160,1332,120625,2
64.20792436599731,-970,1165,1303,120691,2
64.24797129631042,-995,1171,1315,120731,2
64.28810501098633,-999,1164,1339,120781,2
64.32818102836609,-1017,1167,1293,120840,2
64.36811828613281,-973,1176,1331,120899,2
64.40811038017273,-1013,1142,1280,120917,2
64.44810819625854,-1025,1140,1328,120903,2
64.48807406425476,-1015,1142,1269,120674,2
64.52809619903564,-1037,1176,1256,120287,2
64.56810998916626,-1001,1205,1263,120207,2
64.60710215568542,-1017,1187,1199,120237,2
64.64697551727295,-1031,1237,1315,120273,2
64.68707346916199,-1074,1223,1364,120337,2
64.72701239585876,-1088,1238,1382,120436,2
64.76697564125061,-1048,1224,1394,120486,2
64.80710506439209,-1019,1187,1293,120516,2
64.84697341918945,-982,1168,1273,120525,2
64.88695430755615,-973,1163,1290,120545,2
64.92703223228455,-997,1163,1297,120585,2
64.9669463634491,-983,1181,1383,120621,2
65.00711846351624,-983,1182,1371,120691,2
65.04594874382019,-968,1149,1329,120755,2
65.08609461784363,-952,1173,1339,120816,2
65.12600421905518,-997,1162,1302,120880,2
65.16599702835083,-1030,1160,1368,120909,2
65.20595622062683,-997,1139,1332,120955,2
65.24612092971802,-981,1126,1259,120985,2
65.28595924377441,-976,1126,1327,120864,2
65.32608079910278,-962,1136,1328,120479,2
65.36609697341919,-947,1157,1329,120278,2
65.40594673156738,-907,1165,1324,120280,2
65.44508099555969,-946,1191,1347,120273,2
65.48507881164551,-993,1207,1414,120290,2
65.52512311935425,-1002,1199,1403,120351,2
65.56509780883789,-999,1185,1364,120438,2
65.60508394241333,-957,1179,1338,120490,2
65.64495134353638,-954,1157,1306,120507,2
65.68505692481995,-932,1148,1261,120527,2
65.72510766983032,-961,1166,1258,120533,2
65.76509284973145,-1024,1193,1242,120556,2
65.80496644973755,-1052,1206,1283,120597,2
65.84506845474243,-1075,1201,1308,120656,2
65.884042263031,-1035,1190,1324,120720,2
65.92397379875183,-997,1194,1381,120758,2
65.96407914161682,-984,1178,1358,120840,2
66.00398230552673,-973,1176,1365,120889,2
66.04419732093811,-993,1160,1322,120941,2
66.08424615859985,-1009,1139,1330,120843,2
66.12410068511963,-1021,1157,1375,120450,2
66.16496706008911,-1026,1126,1294,120265,2
66.20422339439392,-996,1134,1352,120228,2
66.24409675598145,-988,1133,1354,120230,2
66.28411293029785,-1001,1133,1343,120262,2
66.32307434082031,-988,1148,1410,120340,2
66.36313009262085,-1000,1139,1351,120396,2
66.40308403968811,-972,1148,1372,120462,2
66.44304370880127,-993,1130,1321,120482,2
66.48308038711548,-1008,1151,1365,120544,2
66.52360463142395,-1024,1152,1356,120557,2
66.5636796951294,-1008,1141,1353,120584,2
66.60307145118713,-982,1156,1367,120602,2
66.64297986030579,-1004,1146,1355,120633,2
66.68304252624512,-993,1160,1378,120673,2
66.72209620475769,-989,1142,1337,120708,2
66.76217722892761,-972,1122,1331,120661,2
66.80208659172058,-998,1129,1319,120400,2
66.84222626686096,-1009,1128,1286,120248,2
66.88224744796753,-1002,1139,1297,120239,2
66.92207670211792,-1019,1161,1322,120248,2
66.9623384475708,-1038,1183,1364,120240,2
67.00387501716614,-1039,1177,1356,120247,2
67.04207515716553,-987,1177,1383,120290,2
67.08208417892456,-971,1172,1350,120335,2
67.12208485603333,-980,1163,1313,120372,2
67.16193270683289,-993,1164,1412,120424,2
67.2010498046875,-993,1151,1357,120477,2
67.24099135398865,-962,1156,1325,120539,2
67.28110933303833,-979,1162,1345,120585,2
67.32105922698975,-1014,1146,1306,120643,2
67.36135077476501,-982,1139,1339,120686,2
67.40105104446411,-979,1138,1359,120653,2
67.4410617351532,-963,1165,1379,120394,2
67.4810643196106,-943,1171,1343,120121,2
67.52107310295105,-966,1190,1405,120092,2
67.56011939048767,-960,1160,1346,120131,2
67.60015153884888,-970,1179,1324,120139,2
67.64014601707458,-993,1191,1323,120184,2
67.6800684928894,-1029,1180,1287,120281,2
67.72006177902222,-1033,1186,1322,120330,2
67.76009011268616,-1026,1162,1287,120344,2
67.80012655258179,-976,1161,1310,120360,2
67.8410394191742,-941,1158,1293,120375,2
67.88028359413147,-938,1171,1325,120399,2
67.92006206512451,-982,1171,1352,120424,2
67.96033501625061,-1017,1165,1335,120489,2
67.99907732009888,-996,1163,1309,120525,2
68.03904747962952,-995,1164,1289,120569,2
68.07933282852173,-1022,1172,1330,120463,2
68.11907172203064,-1028,1163,1315,120156,2
68.1591260433197,-1013,1167,1335,120072,2
68.19904088973999,-1016,1162,1324,120050,2
68.23910331726074,-1020,1162,1337,120009,2
68.27907752990723,-1011,1155,1304,119987,2
68.31904625892639,-996,1166,1347,120015,2
68.35907244682312,-1008,1161,1330,120078,2
68.39942574501038,-1027,1169,1339,120132,2
68.4380624294281,-1016,1160,1301,120179,2
68.47804832458496,-1025,1173,1289,120237,2
68.5181212425232,-1028,1174,1306,120315,2
68.55805468559265,-1042,1164,1282,120360,2
68.59808421134949,-1032,1166,1252,120407,2
68.63806128501892,-1046,1164,1340,120457,2
68.67805337905884,-1050,1176,1315,120473,2
68.7180688381195,-1043,1173,1336,120493,2
68.75808024406433,-1018,1163,1332,120529,2
68.7982234954834,-1026,1146,1271,120610,2
68.83703541755676,-1006,1150,1281,120664,2
68.8772542476654,-1058,1165,1312,120439,2
68.91708278656006,-1063,1163,1312,120090,2
68.95730018615723,-1072,1172,1300,120021,2
68.99705219268799,-1065,1168,1269,120026,2
69.03706908226013,-1047,1165,1239,120012,2
69.07707023620605,-1048,1178,1288,120018,2
69.11706733703613,-1049,1157,1275,120062,2
69.15704083442688,-1026,1176,1311,120139,2
69.19743061065674,-1018,1167,1316,120177,2
69.23713088035583,-1012,1162,1324,120234,2
69.27608704566956,-1006,1167,1333,120292,2
69.31605505943298,-1020,1163,1313,120372,2
69.35612750053406,-1032,1170,1297,120431,2
69.39618444442749,-1023,1153,1287,120505,2
69.43605279922485,-1009,1151,1254,120577,2
69.47607445716858,-1024,1180,1291,120614,2
69.51651287078857,-1056,1191,1328,120641,2
69.55607414245605,-1046,1199,1356,120651,2
69.59619116783142,-1027,1188,1362,120681,2
69.63606071472168,-1027,1168,1352,120720,2
69.67607641220093,-1008,1136,1330,120777,2
69.71507024765015,-937,1130,1302,120834,2
69.755051612854,-896,1147,1214,120881,2
69.79548001289368,-947,1212,1328,120713,2
69.83503985404968,-1015,1201,1281,120297,2
69.87535333633423,-1105,1219,1424,120151,2
69.91507506370544,-1071,1203,1414,120143,2
69.95505428314209,-1035,1188,1345,120117,2
69.99508619308472,-992,1162,1361,120090,2
70.03508710861206,-967,1127,1281,120128,2
70.07532405853271,-899,1120,1240,120199,2
70.11510825157166,-854,1143,1189,120249,2
70.15408492088318,-884,1185,1215,120284,2
70.19409775733948,-1008,1235,1363,120334,2
70.23409223556519,-1124,1224,1431,120391,2
70.2740752696991,-1100,1222,1435,120445,2
70.31407451629639,-1056,1161,1469,120486,2
70.35404777526855,-909,1146,1443,120504,2
70.39405608177185,-852,1137,1220,120511,2
70.43406367301941,-896,1203,1200,120543,2
70.47412919998169,-989,1226,1275,120556,2
70.51407527923584,-1104,1230,1331,120593,2
70.55305576324463,-1116,1212,1337,120643,2
70.59309530258179,-1077,1179,1293,120686,2
70.63304376602173,-1016,1151,1238,120472,2
70.67308497428894,-926,1137,1179,120201,2
70.71305084228516,-906,1167,1211,120157,2
70.75305008888245,-993,1207,1268,120133,2
70.79306697845459,-1040,1250,1435,120098,2
70.83305335044861,-1065,1243,1420,120080,2
70.87304401397705,-1028,1218,1402,120101,2
70.91303443908691,-989,1168,1357,120142,2
70.95405793190002,-967,1126,1239,120190,2
70.99208688735962,-952,1142,1250,120227,2
71.03207755088806,-961,1150,1184,120272,2
71.07214403152466,-1009,1206,1237,120313,2
71.11206555366516,-1060,1248,1364,120387,2
71.1520848274231,-1105,1224,1331,120446,2
71.19209718704224,-1078,1210,1385,120501,2
71.23207402229309,-1019,1168,1300,120507,2
71.27205753326416,-940,1146,1273,120524,2
71.31204986572266,-917,1155,1322,120550,2
71.35208177566528,-938,1174,1283,120559,2
71.39204049110413,-994,1207,1351,120624,2
71.43104338645935,-1033,1212,1346,120620,2
71.4710545539856,-1048,1184,1302,120349,2
71.5110547542572,-1011,1185,1288,120153,2
71.55104780197144,-975,1154,1238,120136,2
71.59104490280151,-951,1194,1263,120126,2
71.63116216659546,-996,1231,1333,120103,2
71.67108225822449,-1064,1231,1348,120091,2
71.7110607624054,-1052,1234,1383,120122,2
71.75107383728027,-1063,1183,1284,120152,2
71.7910692691803,-1045,1167,1320,120188,2
71.83006620407104,-1026,1153,1320,120215,2
71.87006044387817,-1010,1127,1276,120266,2
71.91008305549622,-895,1143,1206,120324,2
71.95005059242249,-956,1197,1184,120384,2
71.99007320404053,-1175,1300,1411,120420,2
72.03047013282776,-1203,1307,1376,120454,2
72.0700569152832,-1118,1244,1258,120471,2
72.11008191108704,-1023,1211,1264,120458,2
72.15004372596741,-996,1146,1232,120479,2
72.19006037712097,-1004,1093,1155,120505,2
72.23006749153137,-918,1101,1117,120530,2
72.26907873153687,-896,1177,1061,120305,2
72.30907821655273,-1007,1275,1173,120096,2
72.34907603263855,-1144,1278,1308,120064,2
72.38932538032532,-1182,1300,1428,120061,2
72.430016040802,-1087,1267,1342,120058,2
72.46904921531677,-1068,1196,1259,120066,2
72.50918316841125,-983,1142,1178,120079,2
72.54906439781189,-923,1135,1193,120070,2
72.58908414840698,-963,1186,1227,120062,2
72.62949347496033,-1043,1214,1262,120083,2
72.66814112663269,-1077,1257,1324,120124,2
72.70805668830872,-1082,1256,1318,120178,2
72.74811220169067,-1067,1212,1285,120223,2
72.78805685043335,-1001,1183,1226,120261,2
72.8286349773407,-983,1196,1218,120298,2
72.86804842948914,-998,1201,1234,120333,2
72.90810346603394,-1037,1227,1320,120355,2
72.94811034202576,-1095,1233,1355,120349,2
72.98816204071045,-1067,1218,1328,120376,2
73.028235912323,-1017,1186,1234,120397,2
73.06803917884827,-992,1174,1250,120299,2
73.13998055458069,-1009,1164,1207,120029,2
73.15398216247559,-1033,1194,1258,119940,2
73.18713688850403,-1053,1205,1337,119924,2
73.22721910476685,-1066,1223,1341,119919,2
73.26727557182312,-1023,1209,1352,119932,2
73.30726861953735,-992,1174,1301,119964,2
73.34712147712708,-950,1153,1246,119980,2
73.38711333274841,-957,1152,1298,119959,2
73.42716908454895,-1013,1165,1278,119951,2
73.46716213226318,-1021,1183,1298,119974,2
73.50712776184082,-1027,1190,1288,120011,2
73.5461950302124,-1039,1215,1285,120068,2
73.58620548248291,-1038,1226,1334,120115,2
73.62702465057373,-1028,1197,1276,120165,2
73.66631054878235,-1014,1195,1290,120209,2
73.70619797706604,-1001,1195,1309,120246,2
73.74615478515625,-999,1190,1258,120271,2
73.78622436523438,-1006,1204,1268,120266,2
73.82623410224915,-1035,1208,1283,120288,2
73.86616945266724,-1035,1197,1322,120247,2
73.90617346763611,-1056,1183,1299,119976,2
73.94630932807922,-1024,1171,1263,119835,2
73.98578453063965,-970,1171,1217,119810,2
74.02525687217712,-1021,1169,1210,119781,2
74.06519627571106,-1083,1216,1312,119747,2
74.1051857471466,-1115,1209,1255,119761,2
74.14512276649475,-1089,1202,1242,119806,2
74.1851761341095,-1046,1190,1306,119829,2
74.22515845298767,-1049,1151,1205,119829,2
74.26513290405273,-1023,1163,1223,119838,2
74.30512762069702,-1014,1168,1233,119855,2
74.34518718719482,-1028,1194,1295,119895,2
74.38419675827026,-1089,1211,1291,119945,2
74.42416310310364,-1142,1205,1316,120011,2
74.46420454978943,-1140,1194,1312,120056,2
74.5041434764862,-1083,1183,1245,120119,2
74.54413294792175,-1040,1164,1281,120149,2
74.58412885665894,-1033,1132,1274,120213,2
74.62422370910645,-1023,1104,1272,120228,2
74.66423296928406,-1034,1124,1308,120066,2
74.70416045188904,-1024,1127,1279,119789,2
74.7441201210022,-1014,1158,1304,119686,2
74.78419804573059,-1064,1173,1284,119703,2
74.82312273979187,-1100,1175,1304,119688,2
74.86312627792358,-1108,1184,1318,119699,2
74.90323114395142,-1094,1173,1308,119727,2
74.94318461418152,-1069,1166,1272,119802,2
74.98318767547607,-1099,1141,1248,119846,2
75.02318668365479,-1124,1136,1250,119875,2
75.0634515285492,-1098,1141,1241,119907,2
75.1032292842865,-1082,1160,1287,119935,2
75.14316606521606,-1093,1163,1256,119981,2
75.18319749832153,-1131,1138,1261,120019,2
75.22316694259644,-1152,1133,1238,120105,2
75.26224374771118,-1161,1144,1187,120173,2
75.30281281471252,-1211,1128,1144,120241,2
75.3422327041626,-1157,1155,1137,120288,2
75.38214588165283,-1192,1198,1186,120318,2
75.42250919342041,-1225,1185,1188,120351,2
75.46241211891174,-1223,1214,1096,120375,2
75.50213170051575,-1282,1161,1015,120337,2
75.54219722747803,-1310,1118,996,120163,2
75.58221459388733,-1378,1074,1007,120077,2
75.62210607528687,-1367,1055,965,120055,2
75.66218996047974,-1292,1087,945,120005,2
75.70124745368958,-1257,1134,995,120061,2
75.74110841751099,-1264,1179,950,120128,2
75.7811369895935,-1426,1218,1005,120197,2
75.82114720344543,-1493,1228,1059,120206,2
75.86111998558044,-1485,1242,1057,120065,2
75.90118074417114,-1442,1201,1069,119897,2
75.94114875793457,-1402,1149,1008,119780,2
75.98109602928162,-1312,1123,867,119714,2
76.02117323875427,-1312,1137,968,119715,2
76.06112670898438,-1282,1083,893,119726,2
76.10113167762756,-1321,1118,912,119807,2
76.14013004302979,-1313,1145,951,119871,2
76.18012952804565,-1378,1145,836,120016,2
76.22014164924622,-1365,1180,907,120202,2
76.26012468338013,-1389,1180,846,120291,2
76.30010724067688,-1408,1202,884,120038,2
76.34013104438782,-1411,1217,920,119685,2
76.38031005859375,-1408,1221,810,119512,2
76.42014932632446,-1393,1207,918,119522,2
76.46015238761902,-1406,1167,851,119479,2
76.50021123886108,-1397,1197,855,119449,2
76.54017281532288,-1384,1181,859,119466,2
76.5791757106781,-1383,1186,852,119631,2
76.61914825439453,-1393,1198,885,119695,2
76.65918469429016,-1385,1193,861,119850,2
76.69915056228638,-1397,1200,903,120007,2
76.73913931846619,-1403,1192,862,120117,2
76.77926564216614,-1417,1187,861,120159,2
76.81911587715149,-1387,1191,847,120181,2
76.85915660858154,-1375,1190,866,120166,2
76.89912223815918,-1353,1178,854,120173,2
76.93916368484497,-1387,1196,879,120149,2
76.9791910648346,-1426,1197,860,120165,2
77.01817226409912,-1454,1185,857,120209,2
77.05814385414124,-1405,1197,898,120258,2
77.09812831878662,-1376,1175,861,120306,2
77.13822889328003,-1341,1200,875,120366,2
77.17832374572754,-1367,1199,916,120352,2
77.2181293964386,-1411,1193,895,120266,2
77.25843286514282,-1426,1172,879,120233,2
77.29848456382751,-1410,1148,899,120173,2
77.33813285827637,-1362,1101,828,120171,2
77.37829542160034,-1318,1108,844,120159,2
77.41813325881958,-1328,1146,867,120198,2
77.45711612701416,-1462,1175,985,120239,2
77.49735951423645,-1499,1169,1021,120248,2
77.53723740577698,-1475,1172,1017,120288,2
77.57716941833496,-1395,1164,979,120325,2
77.61716365814209,-1320,1159,1018,120366,2
77.65723514556885,-1338,1152,919,120368,2
77.69728446006775,-1353,1162,961,120378,2
77.73716235160828,-1325,1140,866,120376,2
77.77715969085693,-1324,1147,887,120364,2
77.81719064712524,-1292,1150,831,120407,2
77.85725975036621,-1362,1190,895,120426,2
77.89625930786133,-1445,1198,959,120457,2
77.9361219406128,-1459,1200,1008,120471,2
77.97623205184937,-1416,1184,1027,120510,2
78.01613569259644,-1348,1160,1051,120504,2
78.05630588531494,-1314,1133,1040,120377,2
78.09668827056885,-1292,1127,1056,120210,2
78.13613390922546,-1234,1111,1010,120177,2
78.17617273330688,-1202,1128,946,120187,2
78.21614837646484,-1277,1164,955,120141,2
78.25616264343262,-1363,1195,969,120190,2
78.29619717597961,-1480,1228,1005,120235,2
78.33513402938843,-1482,1211,1006,120280,2
78.37516355514526,-1406,1188,974,120289,2
78.41510915756226,-1341,1146,913,120319,2
78.45514106750488,-1298,1148,923,120343,2
78.49510431289673,-1255,1156,915,120372,2
78.53514194488525,-1285,1189,991,120380,2
78.57513189315796,-1337,1206,1020,120375,2
78.61511540412903,-1374,1191,1024,120363,2
78.655113697052,-1360,1175,982,120367,2
78.69560408592224,-1312,1133,1002,120403,2
78.73510599136353,-1204,1101,937,120433,2
78.77426600456238,-1158,1133,921,120473,2
78.81414484977722,-1181,1174,882,120486,2
78.85412192344666,-1321,1214,939,120502,2
78.89417815208435,-1456,1216,983,120362,2
78.93428611755371,-1541,1225,1058,120184,2
78.97417449951172,-1469,1179,1011,120134,2
79.01411938667297,-1359,1141,975,120107,2
79.05417966842651,-1307,1118,950,120077,2
79.09442830085754,-1319,1115,983,120064,2
79.13413405418396,-1356,1118,996,120124,2
79.17420315742493,-1418,1094,1060,120181,2
79.21314764022827,-1423,1068,1050,120212,2
79.2531189918518,-1311,1047,1032,120238,2
79.29350543022156,-1306,1057,1058,120268,2
79.33313584327698,-1340,1103,1064,120299,2
79.37313079833984,-1387,1135,1085,120320,2
79.41311073303223,-1433,1120,1080,120332,2
79.45313262939453,-1439,1077,1041,120339,2
79.49315047264099,-1429,1058,1079,120316,2
79.53310918807983,-1338,1049,1051,120336,2
79.57317185401917,-1259,1052,1040,120341,2
79.61310887336731,-1287,1077,1095,120386,2
79.65214157104492,-1302,1094,1110,120440,2
79.69216251373291,-1261,1092,1092,120488,2
79.73217535018921,-1253,1094,1059,120503,2
79.77214002609253,-1330,1089,1068,120310,2
79.81286358833313,-1408,1104,1138,120077,2
79.85214972496033,-1367,1081,1049,120026,2
79.89216136932373,-1302,1121,1059,120016,2
79.93219256401062,-1332,1146,1067,119969,2
79.97220969200134,-1367,1137,1027,119981,2
