Timestamp,AccX,AccY,AccZ,Heart_IR,Phase
0.01690673828125,-836,851,2039,115907,0
0.056490421295166016,-788,751,1973,115785,0
0.09627366065979004,-530,764,2040,115637,0
0.13538050651550293,-310,720,1791,115666,0
0.17545247077941895,-421,665,1987,115855,0
0.21605634689331055,-116,668,2108,116076,0
0.25551295280456543,-419,506,2014,116200,0
0.2955467700958252,-522,510,2186,116329,0
0.3355069160461426,-593,471,2239,116385,0
0.3754312992095947,-769,415,2173,116477,0
0.41551756858825684,-632,203,1961,116680,0
0.4554324150085449,-445,84,1804,116573,0
0.4954984188079834,-213,65,1789,115960,0
0.5354149341583252,-113,27,1742,115775,0
0.5753638744354248,41,48,1632,115900,0
0.6156628131866455,31,179,1692,116182,0
0.6544249057769775,143,213,1597,116430,0
0.6945064067840576,-14,394,1777,116583,0
0.73441481590271,-200,341,1913,116663,0
0.7744662761688232,-297,212,2079,116654,0
0.8148760795593262,-198,233,2294,116622,0
0.8544301986694336,-21,172,2090,116791,0
0.8944082260131836,-98,250,2074,116910,0
0.9343838691711426,-10,170,2023,117031,0
0.9743854999542236,-21,162,1932,117154,0
1.014545202255249,29,211,1815,117192,0
1.0544140338897705,-9,311,1804,117203,0
1.0945253372192383,-4,325,1915,116731,0
1.1346931457519531,-50,311,2034,116101,0
1.1746976375579834,-63,284,2103,115935,0
1.2136130332946777,-96,252,2065,116044,0
1.253488302230835,-103,208,2044,116223,0
1.2934746742248535,-125,163,2009,116376,0
1.3334598541259766,-170,245,1960,116508,0
1.3735020160675049,-130,267,1905,116506,0
1.4136760234832764,-160,361,1858,116481,0
1.453484058380127,-176,390,1851,116467,0
1.4934792518615723,-216,431,1892,116529,0
1.5334045886993408,-226,425,2039,116560,0
1.5734190940856934,-285,382,2187,116635,0
1.6135940551757812,-334,351,2324,116709,0
1.65340256690979,-279,290,2290,116744,0
1.6934475898742676,-261,310,2171,116820,0
1.7334425449371338,-213,301,2007,116716,0
1.7724783420562744,-205,311,1926,116281,0
1.8124651908874512,-180,317,1885,115988,0
1.8525049686431885,-201,325,1865,115953,0
1.8941454887390137,-187,310,1880,116068,0
1.9325251579284668,-221,330,1945,116165,0
1.972508192062378,-189,295,2027,116260,0
2.012417793273926,-212,285,2089,116285,0
2.0524678230285645,-214,272,2109,116229,0
2.0924952030181885,-200,269,2118,116168,0
2.1324374675750732,-192,267,2088,116150,0
2.172452449798584,-207,263,2095,116197,0
2.212611675262451,-224,275,2065,116233,0
2.2524831295013428,-192,291,2030,116316,0
2.2924509048461914,-207,286,1974,116377,0
2.331425666809082,-214,278,1929,116461,0
2.371478319168091,-213,263,1895,116358,0
2.412121295928955,-220,281,1828,115970,0
2.451402187347412,-226,265,1782,115688,0
2.491384744644165,-230,247,1691,115647,0
2.5320193767547607,-192,248,1626,115742,0
2.571481704711914,-241,264,1543,115848,0
2.6117334365844727,-224,302,1561,115909,0
2.651459217071533,-264,306,1709,115925,0
2.6915621757507324,-477,243,1798,115844,0
2.7314300537109375,-542,258,2020,115786,0
2.771491289138794,-536,292,2141,115717,0
2.8116540908813477,-372,228,2036,115735,0
2.851465940475464,-373,281,1984,115770,0
2.890446186065674,-252,211,1768,115786,0
2.9303488731384277,-112,95,1665,115820,0
2.970397472381592,-322,174,1590,115871,0
3.0105175971984863,-282,122,1804,115853,0
3.0504260063171387,-480,145,2045,115675,0
3.0904040336608887,-593,147,2316,115230,0
3.1303558349609375,-572,76,2065,114993,0
3.1703383922576904,-701,60,2325,114905,0
3.2110612392425537,-777,43,2286,114832,0
3.2503719329833984,-627,-104,2290,114787,0
3.2904062271118164,-621,-168,2213,114719,0
3.3303768634796143,-771,-181,2119,114598,0
3.370486259460449,-737,-335,2071,114471,0
3.410710573196411,-641,-573,1920,114451,0
3.4503958225250244,-823,-649,2279,114361,0
3.4894120693206787,-890,-682,1900,114216,0
3.5296061038970947,-893,-769,1735,114222,0
3.569385528564453,-992,-878,1869,114296,0
3.6093950271606445,-1253,-824,1832,114283,0
3.6493752002716064,-1103,-920,1649,114179,0
3.689445972442627,-965,-1012,1472,114096,0
3.7294814586639404,-923,-1180,1222,113854,0
3.7693753242492676,-805,-1325,1156,113538,0
3.8094594478607178,-811,-1454,930,113404,0
3.8493900299072266,-616,-1613,1006,113432,0
3.889368772506714,-869,-1713,933,113891,0
3.929577350616455,-971,-1706,1019,113916,0
3.96942138671875,-1093,-1697,1058,113070,0
4.009395122528076,-1054,-1666,976,113328,0
4.048399925231934,-872,-1768,861,112962,0
4.088438987731934,-863,-1707,733,112797,0
4.128610849380493,-882,-1708,634,112755,0
4.168514013290405,-912,-1749,536,112757,0
4.208393335342407,-944,-1725,496,112827,0
4.248411417007446,-986,-1689,543,112908,0
4.28839898109436,-1027,-1682,550,113001,0
4.32905125617981,-1030,-1655,580,113070,0
4.368784427642822,-1072,-1673,617,113161,0
4.408709287643433,-1045,-1662,622,113033,0
4.448442697525024,-1028,-1650,603,112868,0
4.4883811473846436,-1010,-1652,586,112989,0
4.529023170471191,-1040,-1667,583,113462,0
4.5689544677734375,-1029,-1632,634,114249,0
4.6083643436431885,-1035,-1676,605,115332,0
4.647571325302124,-1030,-1655,627,116435,0
4.687445640563965,-1018,-1648,651,117097,0
4.7274510860443115,-1018,-1658,618,117176,0
4.7674174308776855,-1017,-1671,607,116989,0
4.807453393936157,-1040,-1663,576,116815,0
4.847422122955322,-1014,-1661,594,116584,0
4.887510299682617,-1008,-1673,614,116404,0
4.927431106567383,-1007,-1661,621,116218,0
4.967463254928589,-995,-1670,645,116074,0
5.007455110549927,-1013,-1676,629,115938,0
5.047436714172363,-1020,-1676,611,115633,0
5.087451696395874,-1029,-1657,600,115225,0
5.1276936531066895,-1032,-1656,593,115069,0
5.167399168014526,-1025,-1670,632,115129,0
5.207409858703613,-1023,-1656,647,115218,0
5.2468085289001465,-1008,-1655,641,115266,0
5.286448240280151,-999,-1669,643,115280,0
5.326443195343018,-1002,-1670,624,115247,0
5.366411924362183,-1017,-1667,610,115183,0
5.406390428543091,-1038,-1654,586,115140,0
5.44640040397644,-1032,-1661,580,115114,0
5.48641300201416,-1020,-1655,613,115147,0
5.526448965072632,-1000,-1674,609,115121,0
5.5665082931518555,-1006,-1665,629,115131,0
5.606740713119507,-1003,-1661,650,115121,0
5.646615505218506,-990,-1665,613,115078,0
5.686436653137207,-1017,-1686,607,115063,0
5.726458311080933,-1008,-1663,615,114792,0
5.766392230987549,-971,-1639,650,114447,0
5.80639910697937,-1016,-1676,597,114269,0
5.845719814300537,-1041,-1668,605,114244,0
5.8854124546051025,-1021,-1664,632,114248,0
5.9253997802734375,-998,-1670,614,114252,0
5.96539831161499,-990,-1674,650,114241,0
6.005484342575073,-977,-1674,663,114159,0
6.045491456985474,-1002,-1688,677,114088,0
6.085449457168579,-997,-1653,712,114055,0
6.125433444976807,-976,-1656,714,114064,0
6.165428400039673,-982,-1672,635,114101,0
6.205434560775757,-998,-1664,611,114139,0
6.245868921279907,-1005,-1657,620,114167,0
6.285464763641357,-1013,-1646,642,114194,0
6.32557225227356,-1020,-1655,708,114207,0
6.365406036376953,-998,-1666,711,114136,0
6.405443429946899,-971,-1658,665,113853,0
6.444616317749023,-964,-1661,660,113594,0
6.484751462936401,-1005,-1666,669,113509,0
6.524472951889038,-1009,-1646,680,113538,0
6.564426422119141,-999,-1639,694,113577,0
6.604461908340454,-995,-1648,685,113612,0
6.6444456577301025,-1001,-1651,665,113578,0
6.684523105621338,-1009,-1646,671,113503,0
6.72448468208313,-1000,-1650,675,113435,0
6.764498233795166,-996,-1662,687,113414,0
6.8044593334198,-971,-1664,687,113434,0
6.844628810882568,-976,-1666,678,113478,0
6.884443759918213,-980,-1659,675,113497,0
6.924438238143921,-990,-1654,673,113526,0
6.964397192001343,-989,-1642,682,113573,0
7.003441095352173,-997,-1679,683,113557,0
7.043429851531982,-985,-1649,667,113279,0
7.083439588546753,-975,-1653,686,112878,0
7.123461008071899,-985,-1660,673,112694,0
7.163583278656006,-1001,-1671,692,112708,0
7.203785181045532,-986,-1660,696,112755,0
7.243451356887817,-973,-1669,684,112818,0
7.283515930175781,-982,-1657,668,112808,0
7.323434829711914,-986,-1651,693,112713,0
7.3633763790130615,-988,-1664,687,112543,0
7.403960227966309,-967,-1655,689,112430,0
7.443420886993408,-969,-1656,686,112404,0
7.483428001403809,-979,-1663,673,112393,0
7.52346396446228,-991,-1655,680,112458,0
7.5634214878082275,-986,-1657,694,112491,0
7.602447986602783,-1001,-1646,687,112533,0
7.642432689666748,-988,-1661,688,112526,0
7.682534217834473,-986,-1647,664,112273,0
7.722470998764038,-975,-1650,679,111891,0
7.762447357177734,-982,-1672,685,111714,0
7.802467584609985,-983,-1665,688,111747,0
7.842515230178833,-971,-1663,694,111816,0
7.882620811462402,-985,-1657,682,111890,0
7.922774076461792,-994,-1669,667,111881,0
7.962481737136841,-974,-1658,696,111823,0
8.00243854522705,-980,-1675,675,111775,0
8.042462348937988,-987,-1668,682,111704,0
8.082472562789917,-972,-1661,687,111687,0
8.122381925582886,-976,-1677,666,111736,0
8.161535024642944,-976,-1671,668,111844,0
8.20143175125122,-983,-1662,670,111927,0
8.24142074584961,-994,-1671,671,111995,0
8.281421661376953,-998,-1679,690,111954,0
8.321431398391724,-991,-1672,674,111528,0
8.362366199493408,-970,-1639,660,111062,0
8.401509046554565,-975,-1662,686,110841,0
8.44147801399231,-993,-1670,700,110858,0
8.481465816497803,-977,-1663,674,110950,0
8.52146029472351,-959,-1673,676,111079,0
8.561649799346924,-958,-1664,646,111102,0
8.60142707824707,-973,-1668,674,111013,0
8.641424417495728,-996,-1669,686,111021,0
8.681451320648193,-996,-1650,711,111075,0
8.720414638519287,-958,-1664,688,111194,0
8.760534524917603,-970,-1674,642,111369,0
8.800435781478882,-977,-1663,654,111465,0
8.840481758117676,-984,-1675,675,111497,0
8.880464792251587,-972,-1663,697,111564,0
8.920417785644531,-985,-1671,709,111617,0
8.960418462753296,-983,-1677,666,111548,0
9.000429153442383,-965,-1661,634,111230,0
9.040549755096436,-967,-1680,651,111001,0
9.08043122291565,-994,-1663,666,110927,0
9.120498180389404,-986,-1658,691,110963,0
9.160578489303589,-973,-1667,706,110976,0
9.200473546981812,-985,-1672,659,111050,0
9.240463256835938,-976,-1666,660,111034,0
9.279436588287354,-971,-1667,654,110920,0
9.319459199905396,-984,-1676,663,110793,0
9.359432935714722,-980,-1676,664,110659,0
9.399444580078125,-970,-1669,670,110459,0
9.439440488815308,-980,-1682,664,110187,0
9.479411840438843,-999,-1666,657,109905,0
9.519475936889648,-1004,-1662,655,109587,0
9.559414625167847,-991,-1659,651,109348,0
9.59946346282959,-998,-1682,667,109114,0
9.639581441879272,-989,-1667,662,108675,0
9.679481267929077,-972,-1656,648,108182,0
9.719483852386475,-995,-1664,639,107905,0
9.759892463684082,-1008,-1668,645,107877,0
9.79947280883789,-1013,-1651,663,107950,0
9.839482545852661,-999,-1653,655,108046,0
9.87901520729065,-1001,-1657,650,108117,0
9.918431282043457,-1005,-1658,630,108099,0
9.95844054222107,-997,-1665,644,108102,0
9.998446226119995,-1001,-1680,641,108095,0
10.03847599029541,-1008,-1666,647,108083,0
10.078760147094727,-990,-1668,647,108059,0
10.11844778060913,-1000,-1664,646,108055,0
10.158467054367065,-1027,-1666,634,108143,0
10.198469161987305,-1024,-1650,646,108170,0
10.238450527191162,-1002,-1666,638,108270,0
10.278629779815674,-1003,-1654,645,108367,0
10.318573713302612,-1012,-1663,662,108415,0
10.35859751701355,-1010,-1675,637,108399,0
10.398509979248047,-991,-1663,619,108123,0
10.437453985214233,-995,-1662,637,107945,0
10.478207349777222,-1017,-1674,650,107952,0
10.517475366592407,-1010,-1656,648,108062,0
10.5574471950531,-999,-1656,654,108215,0
10.597479820251465,-1008,-1660,625,108265,0
10.637483596801758,-1014,-1659,616,108226,0
10.67751145362854,-999,-1671,640,108200,0
10.717438697814941,-1019,-1662,644,108123,0
10.757450103759766,-1014,-1673,646,108084,0
10.797513961791992,-1000,-1661,660,108052,0
10.837445974349976,-997,-1667,644,108057,0
10.87754201889038,-993,-1662,628,108170,0
10.91746211051941,-1006,-1666,625,108208,0
10.957499027252197,-1015,-1654,635,108159,0
10.997268199920654,-1019,-1658,651,108096,0
11.036463975906372,-1037,-1658,637,108010,0
11.076491355895996,-1016,-1651,621,107850,0
11.116464376449585,-1009,-1657,635,107730,0
11.156473398208618,-1016,-1671,636,107798,0
11.196528434753418,-999,-1674,658,107944,0
11.237020492553711,-995,-1665,656,108052,0
11.276519060134888,-1004,-1660,643,108162,0
11.316524267196655,-1014,-1669,634,108195,0
11.356500387191772,-1003,-1661,631,108105,0
11.396489143371582,-1011,-1661,637,107875,0
11.436509132385254,-1019,-1658,639,107866,0
11.476497888565063,-1021,-1657,643,108039,0
11.516613721847534,-1000,-1657,639,108182,0
11.55658507347107,-1026,-1655,656,108249,0
11.595933675765991,-1011,-1660,640,108281,0
11.635524034500122,-1007,-1657,651,108218,0
11.675527334213257,-1003,-1660,640,108204,0
11.715553998947144,-1022,-1672,653,108299,0
11.755512714385986,-1017,-1672,662,108156,0
11.795654058456421,-957,-1662,664,107729,0
11.835593461990356,-985,-1673,632,107449,0
11.875523567199707,-1036,-1660,617,107473,0
11.915414571762085,-1044,-1655,622,107532,0
11.955536603927612,-1048,-1631,601,107575,0
11.996445417404175,-1057,-1653,609,107555,0
12.035510778427124,-1049,-1642,629,107310,0
12.075509309768677,-1013,-1652,645,107055,0
12.115499496459961,-1009,-1671,640,106919,0
12.15450382232666,-991,-1670,650,106949,0
12.19455337524414,-994,-1663,641,107082,0
12.23459005355835,-1004,-1646,633,107224,0
12.274499416351318,-1032,-1654,632,107236,0
12.314651727676392,-1045,-1641,635,107201,0
12.354551553726196,-1037,-1641,640,107095,0
12.395092010498047,-1032,-1665,637,107058,0
12.43454623222351,-1012,-1663,637,107120,0
12.474478960037231,-997,-1677,637,107090,0
12.514477968215942,-982,-1652,637,106897,0
12.554492473602295,-1005,-1656,642,106767,0
12.594717264175415,-1046,-1655,645,106776,0
12.63471508026123,-1045,-1647,641,106816,0
12.674553394317627,-1017,-1650,633,106884,0
12.714437484741211,-1021,-1661,623,106878,0
12.753588438034058,-1013,-1667,624,106823,0
12.793527126312256,-1002,-1657,646,106829,0
12.833704233169556,-1013,-1657,648,106863,0
12.87347936630249,-1016,-1660,632,106943,0
12.913619995117188,-1016,-1656,639,107068,0
12.953534841537476,-1013,-1656,629,107215,0
12.993572473526001,-1019,-1671,624,107416,0
13.03350281715393,-1019,-1659,636,107561,0
13.073545932769775,-1009,-1657,636,107725,0
13.113478899002075,-1011,-1659,628,107857,0
13.153529167175293,-1009,-1653,624,107938,0
13.193548917770386,-1024,-1674,633,107881,0
13.233561277389526,-1026,-1653,629,107717,0
13.273732423782349,-1011,-1643,649,107256,0
13.324846267700195,-1024,-1649,645,106995,0
13.352520227432251,-1041,-1656,631,107085,0
13.392483711242676,-1013,-1647,643,107170,0
13.43253469467163,-1008,-1652,626,107199,0
13.472488403320312,-1021,-1659,614,107149,0
13.51255488395691,-1012,-1660,646,106957,0
13.552497863769531,-1004,-1663,668,106592,0
13.592500448226929,-1019,-1654,649,106195,0
13.632462739944458,-1013,-1655,638,105988,0
13.672540187835693,-1007,-1665,638,105794,0
13.713107109069824,-1010,-1657,631,105589,0
13.75252079963684,-1009,-1664,636,105368,0
13.792524099349976,-1021,-1647,648,105130,0
13.832510948181152,-1026,-1645,648,104893,0
13.872645378112793,-1036,-1638,653,104818,0
13.911603689193726,-1035,-1649,640,104747,0
13.951531887054443,-1019,-1634,636,104399,0
13.99154281616211,-1012,-1645,648,103897,0
14.031541347503662,-1037,-1646,649,103548,0
14.071553468704224,-1037,-1654,642,103300,0
14.112043619155884,-1010,-1629,611,103140,0
14.151488542556763,-1026,-1656,632,103007,0
14.191509485244751,-1041,-1657,619,102800,0
14.231600046157837,-1034,-1641,632,102561,0
14.271543741226196,-1025,-1654,638,102316,0
14.311642169952393,-1027,-1666,631,102282,0
14.35150694847107,-1029,-1649,638,102233,0
14.392221689224243,-1018,-1643,642,102208,0
14.43157696723938,-1039,-1646,649,102221,0
14.470510721206665,-1040,-1631,644,102227,0
14.510573148727417,-1046,-1635,639,102093,0
14.55053186416626,-1054,-1644,620,101979,0
14.590571880340576,-1043,-1646,627,101938,0
14.630537033081055,-1038,-1651,627,101789,0
14.670564889907837,-1021,-1650,620,101601,0
14.711057901382446,-1031,-1644,628,101406,0
14.750531196594238,-1054,-1642,626,101421,0
14.79054570198059,-1063,-1636,632,101532,0
14.830509901046753,-1056,-1630,628,101602,0
14.870568990707397,-1051,-1645,610,101615,0
14.910536050796509,-1042,-1650,613,101557,0
14.950993776321411,-1028,-1650,637,101531,0
14.990548610687256,-1040,-1661,622,101523,0
15.029606342315674,-1047,-1654,645,101539,0
15.069557905197144,-1057,-1644,638,101628,0
15.109556674957275,-1053,-1642,614,101784,0
15.149500370025635,-1055,-1633,621,101846,0
15.189512252807617,-1058,-1640,618,101834,0
15.2295241355896,-1057,-1639,622,101832,0
15.269521474838257,-1052,-1636,642,101865,0
15.309637546539307,-1033,-1647,632,101879,0
15.349597692489624,-1044,-1659,644,101804,0
15.389524221420288,-1047,-1645,625,101647,0
15.430191993713379,-1025,-1636,612,101352,0
15.469493865966797,-1052,-1645,627,101210,0
15.509536504745483,-1075,-1646,635,101228,0
15.549516201019287,-1053,-1635,637,101293,0
15.589520454406738,-1040,-1632,627,101491,0
15.629197597503662,-1047,-1644,614,101586,0
15.668596029281616,-1036,-1640,636,101566,0
15.708558559417725,-1046,-1645,643,101599,0
15.748512029647827,-1055,-1652,643,101853,0
15.78857159614563,-1050,-1644,630,102184,0
15.828877687454224,-1056,-1622,646,102385,0
15.868499994277954,-1063,-1634,625,102601,0
15.908534049987793,-1049,-1638,610,102730,0
15.948512315750122,-1035,-1636,626,102763,0
15.988521337509155,-1037,-1643,618,102782,0
16.02918028831482,-1041,-1637,635,102704,0
16.068561553955078,-1049,-1636,667,102659,0
16.109119415283203,-1072,-1641,618,102797,0
16.148558378219604,-1030,-1627,625,102695,0
16.188546657562256,-1057,-1633,624,102579,0
16.227566719055176,-1083,-1641,605,102706,0
16.267537832260132,-1039,-1640,626,102890,0
16.307562351226807,-1012,-1672,617,103053,0
16.34756898880005,-1022,-1657,614,103168,0
16.387551307678223,-1051,-1638,648,103212,0
16.42756938934326,-1052,-1631,646,103283,0
16.46753454208374,-1065,-1639,625,103431,0
16.50757360458374,-1066,-1642,611,103449,0
16.547540187835693,-1019,-1648,608,103478,0
16.587546825408936,-1032,-1644,616,103431,0
16.62755250930786,-1041,-1656,617,103396,0
16.66756248474121,-1030,-1650,623,103442,0
16.70760488510132,-1032,-1661,602,103523,0
16.7475528717041,-1038,-1640,607,103651,0
16.78758430480957,-1035,-1650,626,103727,0
16.82653546333313,-1050,-1664,598,103671,0
16.86653780937195,-1039,-1644,608,103418,0
16.90657949447632,-1028,-1644,598,103275,0
16.94651770591736,-1039,-1679,603,103411,0
16.986552238464355,-1022,-1660,614,103541,0
17.02654504776001,-1023,-1659,620,103585,0
17.06655979156494,-1028,-1672,604,103656,0
17.106564044952393,-1031,-1662,593,103616,0
17.14652371406555,-1021,-1658,615,103589,0
17.186609268188477,-1051,-1672,600,103579,0
17.22651743888855,-1049,-1659,615,103584,0
17.266576766967773,-1035,-1665,628,103652,0
17.306689739227295,-1035,-1663,601,103781,0
17.346797466278076,-1015,-1658,609,103910,0
17.38656520843506,-1028,-1662,612,103998,0
17.425591707229614,-1042,-1646,611,104121,0
17.465550422668457,-1046,-1662,619,104330,0
17.505554676055908,-1041,-1651,603,104393,0
17.54591655731201,-1021,-1652,609,104152,0
17.58557438850403,-1039,-1659,616,104020,0
17.62558889389038,-1047,-1663,630,104049,0
17.66556477546692,-1020,-1653,637,104164,0
17.705556869506836,-1020,-1652,613,104343,0
17.745662689208984,-1041,-1649,618,104503,0
17.78552222251892,-1034,-1658,613,104526,0
17.82551884651184,-1043,-1649,612,104481,0
17.865564346313477,-1035,-1661,622,104504,0
17.905542612075806,-1041,-1652,619,104598,0
17.945695400238037,-1040,-1655,635,104742,0
17.984544038772583,-1038,-1651,620,104816,0
18.024585247039795,-1037,-1658,607,104771,0
18.06460475921631,-1048,-1634,603,104810,0
18.104539394378662,-1036,-1652,611,104781,0
18.145143747329712,-1070,-1647,625,104666,0
18.184558391571045,-1042,-1644,620,104379,0
18.224594116210938,-1018,-1640,624,104150,0
18.27333688735962,-1042,-1654,631,104201,0
18.306410312652588,-1056,-1648,628,104472,0
18.3445565700531,-1048,-1644,632,104616,0
18.38453984260559,-1056,-1648,617,104656,0
18.424640893936157,-1048,-1644,610,104518,0
18.464545011520386,-1032,-1647,620,104453,0
18.504605770111084,-1042,-1660,624,104421,0
18.54462504386902,-1048,-1651,625,104429,0
18.583610773086548,-1040,-1646,622,104387,0
18.623608112335205,-1032,-1640,612,104345,0
18.663649797439575,-1048,-1651,602,104373,0
18.70354437828064,-1054,-1640,608,104385,0
18.74357795715332,-1041,-1641,631,104286,0
18.783571243286133,-1050,-1657,627,104240,0
18.823572874069214,-1033,-1644,603,104014,0
18.86379599571228,-1033,-1646,602,103807,0
18.903563976287842,-1047,-1634,611,104006,0
18.94360876083374,-1055,-1643,626,104203,0
18.98359489440918,-1051,-1649,613,104254,0
19.0236713886261,-1047,-1650,622,104149,0
19.06363272666931,-1033,-1655,623,103973,0
19.103562355041504,-1018,-1661,628,103778,0
19.14255166053772,-1029,-1655,616,103640,0
19.182567596435547,-1045,-1641,618,103602,0
19.222612380981445,-1051,-1649,607,103550,0
19.262765169143677,-1044,-1639,603,103531,0
19.302573919296265,-1057,-1650,608,103435,0
19.342547178268433,-1044,-1638,612,103382,0
19.38261103630066,-1028,-1650,612,103362,0
19.42257046699524,-1036,-1676,626,103267,0
19.463416576385498,-1014,-1644,614,103043,0
19.50254249572754,-1012,-1650,623,102858,0
19.54257369041443,-1057,-1652,620,102881,0
19.582556009292603,-1058,-1646,620,102944,0
19.62256956100464,-1032,-1641,624,103082,0
19.662559986114502,-1035,-1662,617,103200,0
19.702596426010132,-1049,-1652,621,103236,0
19.74164915084839,-1031,-1648,625,103221,0
19.78159475326538,-1044,-1656,616,103284,0
19.821680068969727,-1031,-1650,610,103346,0
19.862754106521606,-1030,-1652,618,103385,0
19.90156054496765,-1043,-1652,614,103416,0
19.941728353500366,-1046,-1646,615,103465,0
19.981581926345825,-1036,-1648,626,103502,0
20.021637439727783,-1041,-1647,616,103531,1
20.061887979507446,-1057,-1656,617,103569,1
20.1015887260437,-1035,-1640,599,103499,1
20.141590356826782,-1019,-1649,616,103336,1
20.181609869003296,-1044,-1656,608,103376,1
20.22160577774048,-1042,-1654,634,103540,1
20.261597394943237,-1030,-1645,631,103722,1
20.300581455230713,-1037,-1674,637,103943,1
20.34055471420288,-1130,-1723,787,104152,1
20.380736351013184,-1287,-1766,1162,105459,1
20.42098641395569,-1493,-2056,1455,108529,1
20.460570096969604,-2668,-2340,2553,110735,1
20.500648021697998,-2070,-3557,2560,112873,1
20.54063606262207,-3004,-3101,3002,113846,1
20.58066987991333,-3039,-3622,1900,114944,1
20.6206271648407,-2467,-2187,1273,115728,1
20.660659790039062,-1006,-741,789,115916,1
20.70056700706482,-158,2891,134,116181,1
20.740567207336426,-2661,5896,2216,116318,1
20.780635833740234,-3765,4725,-393,116199,1
20.820544004440308,696,3580,-4284,115300,1
20.860620737075806,4325,2018,-4279,114671,1
20.89956521987915,2242,-6766,349,114800,1
20.939595699310303,-2488,-9923,7761,114804,1
20.979899168014526,-1777,-1510,5000,114557,1
21.01969313621521,496,-1115,-588,114543,1
21.059581995010376,2608,-778,1913,114698,1
21.099558115005493,1006,-285,1830,114688,1
21.139562606811523,491,-327,1661,114918,1
21.179733276367188,231,-478,2128,115171,1
21.219521284103394,4,-579,2010,115400,1
21.259604454040527,-133,-630,2641,114717,1
21.29967713356018,214,-426,2326,113670,1
21.33957600593567,-160,-301,1912,113459,1
21.379777431488037,-146,502,1894,113274,1
21.41954779624939,125,134,1861,112908,1
21.459685802459717,-127,651,2051,112856,1
21.49857234954834,-13,707,2114,113090,1
21.538583278656006,55,682,2008,113251,1
21.578596353530884,-98,904,2020,113535,1
21.61858606338501,131,934,1700,114002,1
21.658534288406372,72,946,1674,114369,1
21.69861912727356,-220,1179,1588,114631,1
21.738606452941895,-74,1166,1688,114861,1
21.778757095336914,158,1691,1875,114974,1
21.818561792373657,1602,1411,1938,115043,1
21.858549118041992,1097,1643,2092,115062,1
21.898571252822876,-305,1607,1709,115120,1
21.938575744628906,-424,1672,1574,115160,1
21.97936177253723,162,1594,1680,115245,1
22.018574714660645,210,1568,1645,115266,1
22.058576345443726,167,1547,1747,115196,1
22.09763216972351,200,1437,1736,114844,1
22.13756036758423,110,1301,2040,114801,1
22.177560567855835,433,1080,1995,114845,1
22.217602968215942,798,975,1580,114863,1
22.258418560028076,1275,-99,1789,114949,1
22.297783136367798,1218,-1241,1571,115137,1
22.33769989013672,484,-1925,2191,114029,1
22.377590894699097,1038,-2567,1842,112574,1
22.417643308639526,261,-2308,1325,112453,1
22.457701444625854,-314,-34,2588,112324,1
22.497554540634155,297,65,2635,112705,1
22.537610054016113,1213,-671,2151,113439,1
22.5780131816864,1162,-491,1706,113980,1
22.617621183395386,351,-50,2253,114346,1
22.656635761260986,615,-539,2464,114609,1
22.69661593437195,567,-644,2264,114672,1
22.736692190170288,204,-605,2354,113088,1
22.7766056060791,507,-716,2007,112170,1
22.816753149032593,255,-644,2212,112272,1
22.85664701461792,431,-339,2108,112601,1
22.896671772003174,359,-322,1852,113079,1
22.936606645584106,109,39,1800,113633,1
22.97671675682068,242,237,1686,114153,1
23.016592264175415,294,282,1626,114355,1
23.056562662124634,106,461,1654,114522,1
23.096775770187378,170,516,1788,114655,1
23.136560678482056,43,693,2106,114782,1
23.176607608795166,186,834,2128,114867,1
23.21561360359192,583,1223,2148,114909,1
23.255608558654785,1510,1207,2390,114929,1
23.29659390449524,1820,813,2636,114850,1
23.335572004318237,-59,1029,2467,114815,1
23.375604391098022,-390,1246,1930,114834,1
23.415576696395874,33,1142,1709,114883,1
23.455583810806274,527,1111,1795,114928,1
23.495832681655884,268,1118,1759,114893,1
23.535571336746216,183,1242,1810,114914,1
23.575577974319458,279,1310,2065,114867,1
23.615582942962646,324,1444,1930,114900,1
23.65559148788452,647,1275,1736,114893,1
23.69629454612732,751,1161,1697,114973,1
23.73557949066162,1219,385,1863,114977,1
23.77559471130371,1711,-497,1589,115055,1
23.814576864242554,965,-673,2047,115201,1
23.854597091674805,940,-2081,1714,114977,1
23.894815683364868,448,-3512,1935,114665,1
23.934585571289062,109,-2749,1350,113931,1
23.97458291053772,-1870,987,3792,112917,1
24.01459503173828,673,-1116,1835,112591,1
24.054588794708252,1644,-963,1152,112979,1
24.095808029174805,880,-309,1945,113030,1
24.134552001953125,92,-63,2095,112574,1
24.174636602401733,403,-218,2085,112428,1
24.21459126472473,341,-635,1953,112298,1
24.25463581085205,161,-631,2269,112183,1
24.294617414474487,265,-975,2223,112255,1
24.33465075492859,165,-1260,2202,112433,1
24.373564958572388,260,-830,2155,112680,1
24.41392230987549,268,-776,2093,112914,1
24.453590869903564,125,-451,2163,113144,1
24.493591785430908,313,-265,1849,113629,1
24.5335853099823,481,-260,1843,113938,1
24.573611736297607,68,52,2006,113942,1
24.61360454559326,281,135,1551,114259,1
24.653613805770874,-123,495,1943,114529,1
24.693620443344116,-57,920,2047,114629,1
24.733604431152344,70,1343,2214,114630,1
24.773608922958374,900,1527,2287,113914,1
24.813685417175293,2098,813,2608,112939,1
24.85370182991028,-102,814,2649,112853,1
24.893604516983032,-975,1111,1804,113215,1
24.9336040019989,-400,1121,1382,113554,1
24.972618341445923,208,1234,1691,113759,1
25.012624740600586,220,1013,1923,113879,1
25.05259680747986,224,1005,2063,113999,1
25.092622995376587,389,1006,2147,114093,1
25.132591485977173,447,1023,1976,114129,1
25.172581434249878,414,1054,1808,114134,1
25.213269472122192,387,997,1571,114127,1
25.252607345581055,318,1052,1987,114120,1
25.29259443283081,591,673,1506,114014,1
25.332612991333008,1061,342,1397,114078,1
25.372599840164185,1386,-154,1340,114253,1
25.412651777267456,1494,-854,1690,114311,1
25.45266628265381,1358,-2516,2122,112832,1
25.4926540851593,290,-5435,2601,111511,1
25.532272338867188,-453,-1440,883,112089,1
25.571651458740234,-1961,2304,4084,111854,1
25.611657857894897,1887,-1575,2064,112172,1
25.651639223098755,1867,-902,1650,112668,1
25.69164276123047,501,-137,1873,113153,1
25.73158621788025,783,-85,1928,113477,1
25.771620512008667,1139,-504,1912,113727,1
25.811641693115234,603,-229,2274,113683,1
25.85159730911255,437,-487,2406,113317,1
25.89176893234253,404,-997,2238,112985,1
25.931621074676514,338,-992,2131,112911,1
25.97160053253174,700,-1149,1822,113101,1
26.011720180511475,234,-704,1916,113120,1
26.051647424697876,433,-549,1926,112381,1
26.091588258743286,218,-399,1770,111976,1
26.130627870559692,268,-60,1929,112085,1
26.170623540878296,136,153,1948,112332,1
26.210585832595825,213,173,1897,112742,1
26.25063729286194,31,643,2050,113238,1
26.29059386253357,378,1006,2155,113567,1
26.330609798431396,1090,1309,2073,113648,1
26.37064266204834,1580,695,1908,113589,1
26.410598278045654,955,331,2080,113603,1
26.45062518119812,-150,718,2532,113392,1
26.490610599517822,-602,682,2194,113546,1
26.530603170394897,-284,619,1811,113680,1
26.57063102722168,32,720,1993,113711,1
26.610830545425415,23,679,1866,113747,1
26.6506085395813,31,593,1938,113815,1
26.689610242843628,81,615,2106,113880,1
26.7298686504364,152,602,2107,113917,1
26.76963520050049,82,751,2021,113913,1
26.80968713760376,221,863,2032,113941,1
26.84961247444153,478,945,2073,113918,1
26.889609813690186,618,956,1859,113889,1
26.9297993183136,687,880,1601,113876,1
26.96964383125305,640,991,1850,113922,1
27.009613275527954,599,493,1826,113908,1
27.049630165100098,410,355,1853,113926,1
27.089651346206665,779,115,1879,113887,1
27.129642724990845,1230,-586,1419,113949,1
27.169628858566284,840,-977,1554,114254,1
27.209659099578857,1364,-2116,1913,113971,1
27.2496337890625,724,-3748,2183,112999,1
27.288695096969604,-762,-239,2168,113092,1
27.329439640045166,-841,860,2675,112214,1
27.36864995956421,1601,-879,2041,112125,1
27.408700227737427,1388,-457,2135,112348,1
27.448620796203613,270,-136,2209,112739,1
27.488627195358276,456,-227,2529,112969,1
27.546655654907227,666,-688,2206,113022,1
27.56890368461609,287,-721,2319,112931,1
27.608641386032104,601,-1315,2470,112626,1
27.648898363113403,322,-987,2021,112461,1
27.688658475875854,668,-966,1881,112591,1
27.72886037826538,401,-380,1899,112806,1
27.768667459487915,491,-316,1873,113207,1
27.8087260723114,378,-4,1688,113785,1
27.848612546920776,211,206,1661,114046,1
27.88762640953064,272,265,1591,114176,1
27.927654266357422,201,520,1849,114363,1
27.96767568588257,164,414,2090,114397,1
28.007659435272217,43,571,2182,113635,1
28.047579765319824,165,640,2335,113317,1
28.087719917297363,-195,833,2651,113609,1
28.127643823623657,64,813,2430,114070,1
28.167658805847168,107,829,2097,114417,1
28.208024978637695,131,832,2064,114669,1
28.24758005142212,339,631,1956,114759,1
28.287641525268555,256,520,1976,114867,1
28.327910900115967,217,524,1870,114874,1
28.367651224136353,114,477,1828,114939,1
28.40761661529541,1,465,1978,115020,1
28.446755170822144,-46,393,2153,115100,1
28.486629724502563,100,334,2036,115084,1
28.5266273021698,180,596,1976,115126,1
28.566590309143066,81,795,2096,115242,1
28.60666584968567,296,881,2264,115414,1
28.646626472473145,113,1103,2272,115553,1
28.686657190322876,301,1144,2154,115572,1
28.72669816017151,318,1304,1865,115454,1
28.76662564277649,491,1412,1975,115294,1
28.806650400161743,383,1547,1925,115140,1
28.846692085266113,539,1264,1628,114933,1
28.886741638183594,542,831,1354,115019,1
28.92667007446289,720,376,1697,115035,1
28.966675758361816,1025,-723,1195,115122,1
29.006624937057495,793,-949,1706,115409,1
29.04677128791809,623,-1654,2069,114678,1
29.08564567565918,493,-3219,2222,113540,1
29.12571907043457,1284,-2235,1194,113687,1
29.165628910064697,-1276,624,3552,113406,1
29.2056565284729,-295,385,2917,112851,1
29.24605894088745,2135,-905,1485,112862,1
29.28565526008606,1273,-344,1757,113050,1
29.325671195983887,544,197,2159,113356,1
29.365673542022705,627,-97,1992,113703,1
29.405657291412354,431,-48,2311,113818,1
29.44615650177002,360,-385,2073,113806,1
29.48568630218506,565,-457,1963,113785,1
29.525798082351685,322,-467,2362,113578,1
29.56566572189331,705,-787,2158,113566,1
29.604756593704224,395,-579,2124,113782,1
29.64469623565674,397,-511,1955,114082,1
29.684823751449585,106,-432,1982,114451,1
29.724635362625122,69,-54,1952,114766,1
29.76469874382019,-45,-121,1970,114880,1
29.804718017578125,91,370,1726,115035,1
29.84485149383545,-23,382,1953,114604,1
29.884656190872192,93,473,1809,113567,1
29.92468810081482,125,809,1877,113642,1
29.964609146118164,-29,999,1854,114092,1
30.004693746566772,172,1218,1893,114538,1
30.044683933258057,590,1522,2049,114747,1
30.08466625213623,1028,1302,2018,114746,1
30.124627113342285,719,893,1944,114784,1
30.163737058639526,-227,934,2093,114873,1
30.203696727752686,-658,951,1953,114952,1
30.24368906021118,-496,1001,1828,115098,1
30.28402590751648,-280,1040,1941,115226,1
30.323777437210083,-302,1119,2092,115299,1
30.36388063430786,-335,1193,2134,115360,1
30.403684854507446,-211,1245,2130,115433,1
30.443692207336426,44,1253,2085,115501,1
30.48365092277527,306,1372,2080,115547,1
30.523706436157227,416,1348,2145,115545,1
30.563751220703125,120,1489,1871,115422,1
30.603700876235962,397,1421,1576,115395,1
30.643725872039795,432,1154,1181,115433,1
30.68266749382019,527,857,1169,115590,1
30.722704887390137,860,164,1104,115756,1
30.76282525062561,941,-162,1335,116064,1
30.80268120765686,795,-557,1445,115993,1
30.84274196624756,897,-1430,1597,114985,1
30.882660388946533,471,-3936,2263,113912,1
30.922688961029053,1109,-1852,1395,113802,1
30.962749481201172,-1591,1006,3442,114085,1
31.002615928649902,213,1,2442,113733,1
31.042733192443848,2020,-1043,1500,113843,1
31.082700729370117,815,-261,2292,113711,1
31.122791051864624,458,-141,2317,113619,1
31.163405656814575,599,-492,2190,113752,1
31.202685117721558,605,-557,2379,113886,1
31.241714477539062,552,-789,2147,113974,1
31.28162169456482,434,-878,2024,113976,1
31.3216712474823,450,-787,2099,113902,1
31.36182475090027,246,-687,2024,113884,1
31.401697397232056,198,-762,2091,113921,1
31.441696405410767,162,-409,1783,114062,1
31.48172616958618,37,-340,1729,114477,1
31.52171564102173,141,-122,1758,114873,1
31.562047481536865,78,45,1925,115118,1
31.601635217666626,314,232,1780,115222,1
31.64170503616333,215,516,2019,115418,1
31.68161678314209,333,652,1924,115481,1
31.721660137176514,534,582,2163,115743,1
31.76187801361084,357,646,2357,115987,1
31.800652742385864,278,779,2188,116227,1
31.840733528137207,357,618,2001,116438,1
31.880669116973877,186,630,1888,117098,1
31.92070770263672,107,654,2012,117963,1
31.96069025993347,15,597,2018,118523,1
32.00074648857117,-134,723,2189,118921,1
32.04071569442749,-55,789,2252,118993,1
32.08065223693848,129,944,2155,119062,1
32.12068700790405,150,979,1970,119079,1
32.16068124771118,267,936,1780,119011,1
32.20068073272705,252,844,1953,118998,1
32.24106693267822,393,708,1932,118783,1
32.28067231178284,526,650,1928,118697,1
32.32065439224243,611,494,1858,118464,1
32.35974740982056,846,550,1704,118300,1
32.39974546432495,531,863,2097,118201,1
32.43964695930481,958,552,1738,117973,1
32.47972869873047,713,739,1935,117806,1
32.51974034309387,728,806,1993,117589,1
32.55969834327698,759,515,1755,117660,1
32.59970569610596,623,152,2057,117815,1
32.63973784446716,1178,-820,1921,118120,1
32.68002462387085,653,-1979,1790,118104,1
32.71972918510437,645,-2787,2373,116767,1
32.75969314575195,-688,-1029,2255,116735,1
32.79976487159729,-1567,1102,2636,116604,1
32.83969736099243,1474,-1073,1826,116051,1
32.87975764274597,1055,-420,1363,116160,1
32.918702840805054,58,-53,2278,115775,1
32.95882320404053,613,-679,2388,115213,1
32.998668909072876,7,-460,2440,115226,1
33.03879928588867,518,-1452,2167,115291,1
33.07883071899414,-365,-674,2191,115343,1
33.11865949630737,216,-1048,1909,115402,1
33.15871596336365,-147,-770,2154,115372,1
33.19870066642761,1,-730,2254,115406,1
33.23872971534729,174,-411,2064,115451,1
33.2786648273468,-198,13,2022,115462,1
33.31897234916687,328,109,2017,115504,1
33.35874128341675,-62,744,2052,115633,1
33.39871883392334,146,561,1765,115864,1
33.43775033950806,-340,1064,2102,116002,1
33.47773742675781,-239,1018,2171,116018,1
33.517659187316895,159,727,1992,116088,1
33.55772662162781,-317,570,2127,116037,1
33.59767556190491,-918,328,1942,116255,1
33.63771200180054,-935,230,1923,116429,1
33.67822766304016,-435,380,1950,116531,1
33.71769189834595,-440,369,1602,116646,1
33.75782108306885,-374,582,1868,116758,1
33.79769587516785,-406,556,2009,116730,1
33.837709188461304,-494,601,2106,116722,1
33.8779673576355,-508,620,2081,116718,1
33.91773319244385,-485,597,2158,116696,1
33.95774245262146,-412,815,2230,116637,1
33.99683165550232,-502,776,2174,116560,1
34.03667759895325,-399,826,2088,116486,1
34.0767867565155,-325,818,2278,116455,1
34.11669373512268,-94,1015,2338,116490,1
34.156749963760376,-32,958,2267,116468,1
34.19672989845276,225,666,2075,116475,1
34.2367422580719,489,395,1943,116539,1
34.27673578262329,669,264,1632,116579,1
34.31672954559326,1011,-526,1384,116702,1
34.356696367263794,510,-861,1580,116058,1
34.396716594696045,552,-1398,2081,114270,1
34.43676733970642,1059,-2340,2063,113463,1
34.47672700881958,801,-2622,1549,113222,1
34.51667785644531,360,-663,1676,113494,1
34.55579900741577,-1156,470,3170,113391,1
34.59665322303772,816,-281,2437,113823,1
34.63574290275574,1401,-393,1629,114898,1
34.675697326660156,607,-154,2122,115270,1
34.71566724777222,478,88,2274,115266,1
34.7557487487793,418,-505,2143,113602,1
34.79621911048889,173,-812,2164,112843,1
34.83574390411377,257,-842,2246,112667,1
34.8757483959198,427,-1091,2164,112685,1
34.91570591926575,111,-655,1937,113065,1
34.95574450492859,190,-729,1783,113543,1
34.995928049087524,167,-302,1691,114022,1
35.03584337234497,388,-187,1589,114461,1
35.074697971343994,210,61,2039,114689,1
35.11468720436096,183,364,1940,115067,1
35.15469932556152,216,305,2032,115309,1
35.19474172592163,53,359,2361,115504,1
35.23473858833313,-312,669,2233,115564,1
35.274723529815674,-126,747,2204,115660,1
35.314719438552856,124,966,2226,115599,1
35.354745388031006,1296,779,2339,115627,1
35.39480686187744,-337,341,2210,115757,1
35.43476414680481,-1113,383,1832,115939,1
35.47477912902832,-911,328,1886,116022,1
35.51473641395569,-519,498,2020,115998,1
35.55470633506775,-478,331,2040,116076,1
35.59481692314148,-724,328,2031,116095,1
35.633716106414795,-810,589,2084,116085,1
35.673739433288574,-507,744,2075,116043,1
35.713764905929565,-489,773,2173,116005,1
35.753751039505005,-558,998,2188,115955,1
35.793747425079346,-329,964,1975,115834,1
35.83366370201111,8,1031,1763,115799,1
35.87372350692749,-18,1130,1796,115747,1
35.91384720802307,213,880,1717,115736,1
35.95371055603027,216,755,1761,115766,1
35.99378752708435,285,506,1747,115745,1
36.03370475769043,616,1,1482,115781,1
36.07373046875,500,-190,2042,115366,1
36.11400508880615,440,-664,1969,114204,1
36.153712034225464,718,-1114,1781,113214,1
36.19270920753479,711,-1156,1808,112972,1
36.232728719711304,470,-1744,1702,112816,1
36.27277755737305,415,-1631,2011,112570,1
36.31319737434387,-52,-520,2082,112754,1
36.35274004936218,-1377,40,3518,112963,1
36.39279389381409,1205,-551,1995,112642,1
36.4327597618103,1177,-456,1589,113181,1
36.47276973724365,330,-166,1951,113766,1
36.51293611526489,226,-146,2184,114116,1
36.552753925323486,322,-513,2310,114157,1
36.592772483825684,133,-562,2547,113539,1
36.6327543258667,132,-953,2526,112444,1
36.73250436782837,252,-1186,1943,112132,1
36.73416590690613,252,-970,1995,112262,1
36.75377440452576,165,-585,2044,112759,1
36.791714668273926,132,-550,1697,113784,1
36.831777572631836,-160,-276,1920,114544,1
36.87175536155701,-34,-91,1994,114858,1
36.91178917884827,-77,179,1961,115063,1
36.951770544052124,-158,385,2183,115256,1
36.99186110496521,-267,602,2018,115317,1
37.03172326087952,-117,843,2107,115394,1
37.071770668029785,-159,1230,2245,115355,1
37.111873149871826,917,1205,2029,115206,1
37.15171551704407,1143,654,2014,115209,1
37.191699266433716,4,718,2294,115267,1
37.23175072669983,-441,590,2146,115298,1
37.2707679271698,-549,715,1992,115271,1
37.310749530792236,-376,685,1842,115275,1
37.350717067718506,-235,597,1728,115284,1
37.390763998031616,-157,587,1841,115317,1
37.430848121643066,-123,601,1907,115372,1
37.47078084945679,-333,596,2057,115448,1
37.51080894470215,-217,587,2092,115447,1
37.550734996795654,75,650,2014,115433,1
37.59077477455139,155,865,2029,115437,1
37.63072109222412,121,933,2096,115421,1
37.67076110839844,154,969,2307,115447,1
37.71070861816406,139,1136,2246,115451,1
37.75071859359741,63,1184,2077,115470,1
37.79076933860779,217,1014,1682,115500,1
37.82983446121216,256,795,1763,115558,1
37.86969804763794,474,359,1495,115646,1
37.909703969955444,553,151,1944,115734,1
37.9497504234314,529,-15,1725,115782,1
37.989776372909546,598,-933,1685,114310,1
38.03046441078186,683,-1322,2017,112939,1
38.069955825805664,373,-1354,1974,112845,1
38.10979413986206,78,-1066,1990,112849,1
38.14982986450195,527,-637,2034,112883,1
38.18974447250366,-219,-101,2423,112880,1
38.22977542877197,-139,-53,2460,112845,1
38.269750356674194,933,-368,1836,113135,1
38.30971932411194,645,-328,1837,113725,1
38.349706172943115,166,-245,2287,114087,1
38.38974642753601,441,-468,2197,114341,1
38.42881655693054,250,-464,2330,114354,1
38.46876096725464,389,-590,2586,114024,1
38.50894117355347,498,-915,2157,114163,1
38.54875087738037,-68,-747,1997,114361,1
38.58874154090881,216,-611,1966,113494,1
38.628817319869995,181,-414,1881,112725,1
38.66875100135803,231,-321,1629,113073,1
38.708775997161865,206,153,1534,113696,1
38.748711585998535,321,226,1747,114068,1
38.78873085975647,157,538,2003,114262,1
38.82876014709473,26,782,2125,114358,1
38.868730545043945,66,765,2067,114450,1
38.90874099731445,-66,949,2237,114541,1
38.94871258735657,175,1247,2161,114616,1
38.98897838592529,501,1206,2144,114545,1
39.02778911590576,573,1046,1925,114477,1
39.06774091720581,351,922,2060,114614,1
39.10780167579651,-263,1058,2252,114744,1
39.147804975509644,-702,1150,2205,114913,1
39.1877977848053,-427,1161,2134,115007,1
39.22774624824524,-151,1023,2027,115084,1
39.267791509628296,59,1002,1938,115163,1
39.30774688720703,244,1036,1938,115207,1
39.34775710105896,306,1080,1992,115204,1
39.387781620025635,233,1170,1931,115183,1
39.42806100845337,171,1196,1778,115204,1
39.467841148376465,421,1120,1620,115213,1
39.50783085823059,362,1103,1574,115284,1
39.548012018203735,439,902,1500,115397,1
39.58779215812683,636,568,1411,115484,1
39.62680792808533,789,144,1330,115679,1
39.66684889793396,781,-166,1492,115891,1
39.706841707229614,553,-488,1467,115376,1
39.74694108963013,565,-1040,1651,114485,1
39.787049531936646,544,-2319,2092,113943,1
39.82682776451111,695,-1861,1529,113167,1
39.8668007850647,-494,-276,2058,112937,1
39.9069447517395,-885,164,2848,112932,1
39.946826457977295,391,-470,2513,112841,1
39.98685312271118,435,-639,2254,112924,1
40.027071714401245,320,-661,2105,112959,2
40.06678533554077,640,-738,1939,112904,2
40.106839179992676,434,-569,1789,112851,2
40.14726901054382,290,-321,1734,112804,2
40.18581247329712,363,-269,1551,112761,2
40.225730180740356,300,81,1383,112832,2
40.26572799682617,278,10,1069,112843,2
40.30580949783325,225,142,885,112925,2
40.345969915390015,173,-105,1057,112897,2
40.38572931289673,-461,31,939,112949,2
40.425901889801025,-841,-278,1251,113078,2
40.46576118469238,-1135,9,1722,112755,2
40.505813121795654,-966,-1,2068,112226,2
40.545992851257324,-1103,-508,2243,112042,2
40.5858154296875,-1518,-954,2108,112106,2
40.626044273376465,-1453,-1332,2306,112075,2
40.66579556465149,-1109,-1818,2048,112006,2
40.70579147338867,-1364,-2444,2349,111895,2
40.746830463409424,-1534,-2185,2447,111617,2
40.78480672836304,-1399,-1907,2308,111429,2
40.82482886314392,-923,-1525,1851,111085,2
40.8648796081543,-409,-1757,1210,110808,2
40.90483236312866,-538,-1906,880,110819,2
40.944841623306274,-717,-1931,869,110836,2
40.98476243019104,-575,-1906,705,110877,2
41.024824380874634,-467,-1922,720,111038,2
41.06481146812439,-533,-1886,772,111116,2
41.104820728302,-458,-1909,729,110849,2
41.14481496810913,-328,-1936,704,110381,2
41.184776067733765,-306,-1889,717,110037,2
41.22482657432556,-434,-1899,655,109748,2
41.26477360725403,-564,-1870,566,109499,2
41.30483341217041,-676,-1852,538,109338,2
41.34481906890869,-726,-1850,496,109160,2
41.383801221847534,-725,-1826,525,108952,2
41.4238178730011,-740,-1795,597,108790,2
41.46381878852844,-701,-1756,733,108625,2
41.50444149971008,-722,-1770,762,108519,2
41.54390788078308,-724,-1805,764,108414,2
41.5837984085083,-718,-1796,742,108307,2
41.62382698059082,-714,-1797,670,108222,2
41.66381120681763,-689,-1802,635,108184,2
41.70377492904663,-676,-1818,655,108030,2
41.743823289871216,-664,-1803,679,107656,2
41.783809185028076,-658,-1806,711,107279,2
41.82382941246033,-658,-1811,724,107044,2
41.863770723342896,-688,-1811,725,106969,2
41.90392994880676,-669,-1820,696,106943,2
41.94389462471008,-657,-1803,695,106929,2
41.9827663898468,-670,-1803,688,106872,2
42.0228226184845,-665,-1790,704,106777,2
42.06304454803467,-669,-1812,700,106703,2
42.103013038635254,-673,-1812,699,106711,2
42.14276957511902,-670,-1819,679,106710,2
42.18279552459717,-661,-1816,685,106741,2
42.222771406173706,-637,-1811,690,106785,2
42.26311445236206,-627,-1805,698,106831,2
42.30283284187317,-632,-1820,696,106877,2
42.34301519393921,-663,-1830,697,106832,2
42.38276219367981,-665,-1804,686,106570,2
42.42298412322998,-639,-1813,682,106296,2
42.4627640247345,-652,-1827,696,106240,2
42.5029571056366,-654,-1828,713,106281,2
42.54181718826294,-661,-1806,694,106351,2
42.58177351951599,-654,-1802,689,106411,2
42.62183856964111,-662,-1812,681,106413,2
42.66192007064819,-658,-1809,680,106362,2
42.70203423500061,-649,-1821,673,106335,2
42.74198246002197,-641,-1811,684,106303,2
42.781776428222656,-632,-1816,691,106324,2
42.821956396102905,-630,-1828,685,106347,2
42.86188554763794,-647,-1814,694,106380,2
42.9019238948822,-646,-1806,689,106429,2
42.94201683998108,-668,-1830,677,106456,2
42.981900691986084,-677,-1810,677,106396,2
43.02194786071777,-635,-1810,666,106082,2
43.06180477142334,-636,-1833,672,105859,2
43.101996183395386,-645,-1828,686,105800,2
43.14109706878662,-645,-1820,690,105869,2
43.18078255653381,-638,-1821,684,105969,2
43.22087550163269,-652,-1818,689,106056,2
43.26106119155884,-664,-1826,677,106102,2
43.30079388618469,-660,-1822,672,106107,2
43.34090280532837,-663,-1820,665,106153,2
43.38095808029175,-641,-1829,658,106206,2
43.420952558517456,-645,-1826,679,106273,2
43.46100664138794,-637,-1817,671,106343,2
43.500974893569946,-645,-1818,682,106393,2
43.54117512702942,-660,-1816,680,106446,2
43.58082985877991,-660,-1829,678,106468,2
43.621092081069946,-673,-1800,658,106292,2
43.660839796066284,-636,-1818,660,106017,2
43.69979977607727,-656,-1824,665,105915,2
43.739991664886475,-654,-1833,677,105964,2
43.77997970581055,-654,-1821,686,106026,2
43.8198938369751,-654,-1821,663,106127,2
43.859792709350586,-673,-1821,668,106191,2
43.90068054199219,-667,-1816,677,106217,2
43.94048357009888,-653,-1830,666,106223,2
43.98017406463623,-658,-1847,667,106252,2
44.02068758010864,-640,-1825,676,106292,2
44.06048917770386,-651,-1821,671,106397,2
44.099822998046875,-651,-1827,659,106469,2
44.140689849853516,-666,-1811,669,106580,2
44.179908990859985,-647,-1835,675,106710,2
44.219852685928345,-665,-1832,672,106703,2
44.25885891914368,-668,-1802,663,106447,2
44.29880928993225,-650,-1826,642,106205,2
44.33988094329834,-669,-1831,641,106176,2
44.37880825996399,-650,-1838,669,106220,2
44.419381856918335,-636,-1825,690,106283,2
44.45969033241272,-626,-1827,663,106349,2
44.49880933761597,-675,-1825,650,106395,2
44.53942537307739,-675,-1820,646,106382,2
44.58039307594299,-670,-1825,651,106366,2
44.618825912475586,-656,-1831,668,106377,2
44.658836126327515,-651,-1811,680,106401,2
44.69899320602417,-647,-1832,671,106474,2
44.73781871795654,-651,-1830,640,106564,2
44.77842307090759,-656,-1829,652,106659,2
44.81788635253906,-673,-1828,666,106714,2
44.858506202697754,-672,-1838,665,106664,2
44.89781475067139,-652,-1823,642,106334,2
44.93782639503479,-644,-1827,643,106040,2
44.977824449539185,-646,-1843,650,105946,2
45.01783204078674,-663,-1828,670,105942,2
45.05780816078186,-652,-1814,675,105961,2
45.09783172607422,-667,-1828,637,106009,2
45.13781785964966,-669,-1817,643,106062,2
45.178715467453,-655,-1828,666,106062,2
45.21850562095642,-653,-1832,667,106114,2
45.25782489776611,-642,-1832,664,106179,2
45.29717516899109,-645,-1827,666,106260,2
45.33712649345398,-645,-1826,650,106331,2
45.37681818008423,-663,-1819,649,106396,2
45.41733455657959,-660,-1815,659,106464,2
45.457088232040405,-646,-1824,667,106503,2
45.49708127975464,-665,-1832,672,106560,2
45.53767728805542,-668,-1833,652,106425,2
45.57737612724304,-629,-1817,654,106057,2
45.616811752319336,-647,-1823,666,105713,2
45.656864643096924,-683,-1833,666,105595,2
45.69684433937073,-652,-1830,678,105597,2
45.73683977127075,-641,-1802,669,105641,2
45.7768440246582,-654,-1825,648,105755,2
45.8167941570282,-661,-1829,657,105813,2
45.85583281517029,-641,-1822,672,105821,2
45.92881226539612,-652,-1833,662,105843,2
45.936076164245605,-645,-1836,660,105894,2
45.97582244873047,-652,-1823,660,105966,2
46.01580023765564,-659,-1836,665,106024,2
46.0564866065979,-660,-1824,665,106092,2
46.09594678878784,-646,-1823,664,106140,2
46.13582515716553,-639,-1820,674,106180,2
46.17629098892212,-650,-1817,672,106237,2
46.2166063785553,-670,-1842,663,106256,2
46.25601553916931,-649,-1822,646,106062,2
46.2964026927948,-632,-1811,664,105681,2
46.33670353889465,-658,-1840,676,105501,2
46.375826835632324,-669,-1827,693,105530,2
46.414860248565674,-654,-1828,666,105603,2
46.45485258102417,-638,-1818,653,105732,2
46.49501657485962,-657,-1834,647,105804,2
46.53502941131592,-644,-1821,664,105842,2
46.57484579086304,-643,-1838,677,105820,2
46.61484169960022,-652,-1821,678,105853,2
46.654847860336304,-646,-1823,681,105878,2
46.695677757263184,-665,-1823,658,105949,2
46.735421895980835,-661,-1817,666,105983,2
46.77484893798828,-654,-1821,678,106033,2
46.81481432914734,-645,-1830,680,106087,2
46.85502791404724,-639,-1817,693,106157,2
46.894842863082886,-661,-1838,673,106218,2
46.93386363983154,-642,-1812,655,106035,2
46.97400999069214,-643,-1821,648,105698,2
47.014206886291504,-664,-1839,656,105526,2
47.054811239242554,-636,-1827,683,105540,2
47.09461236000061,-653,-1811,685,105628,2
47.13400316238403,-664,-1822,684,105741,2
47.173864126205444,-667,-1832,656,105843,2
47.21382474899292,-654,-1816,647,105854,2
47.25482654571533,-619,-1827,659,105853,2
47.294296979904175,-645,-1832,676,105855,2
47.334198236465454,-644,-1825,691,105919,2
47.374576807022095,-650,-1823,669,105966,2
47.41386675834656,-652,-1820,643,106059,2
47.45400667190552,-650,-1827,658,106163,2
47.493014097213745,-632,-1836,664,106234,2
47.53286266326904,-627,-1827,674,106323,2
47.57286310195923,-665,-1813,691,106398,2
47.61314010620117,-659,-1824,639,106270,2
47.653026819229126,-648,-1831,615,105957,2
47.69301152229309,-666,-1818,638,105729,2
47.73282313346863,-672,-1826,672,105707,2
47.77305507659912,-663,-1830,677,105725,2
47.81321692466736,-644,-1811,668,105766,2
47.853352785110474,-638,-1810,648,105815,2
47.89301252365112,-665,-1837,628,105821,2
47.933002948760986,-684,-1826,637,105832,2
47.973026275634766,-690,-1823,684,105778,2
48.01319932937622,-706,-1820,701,105796,2
48.05284023284912,-705,-1796,738,105819,2
48.09304094314575,-680,-1808,693,105929,2
48.13184070587158,-673,-1829,637,106061,2
48.17200326919556,-675,-1822,627,106156,2
48.21210741996765,-684,-1824,660,106252,2
48.25205135345459,-680,-1844,661,106363,2
48.291847229003906,-634,-1838,620,106329,2
48.331926345825195,-623,-1812,622,106016,2
48.372013092041016,-685,-1807,667,105704,2
48.412010192871094,-722,-1833,696,105546,2
48.45186805725098,-704,-1786,708,105495,2
48.49201226234436,-680,-1765,662,105541,2
48.531824588775635,-673,-1817,630,105678,2
48.572075843811035,-712,-1822,603,105790,2
48.61198115348816,-644,-1868,630,105773,2
48.65201377868652,-623,-1830,655,105810,2
48.69199466705322,-641,-1830,692,105842,2
48.73104119300842,-684,-1797,664,105941,2
48.7708740234375,-725,-1805,670,106047,2
48.811033487319946,-743,-1805,688,106139,2
48.85103726387024,-735,-1820,670,106215,2
48.89105772972107,-647,-1808,602,106368,2
48.93099403381348,-617,-1825,627,106491,2
48.9708411693573,-682,-1827,685,106505,2
49.011011362075806,-711,-1813,692,106225,2
49.05102276802063,-667,-1815,653,105854,2
49.090861082077026,-660,-1831,606,105747,2
49.13106155395508,-682,-1868,548,105790,2
49.171011447906494,-676,-1829,610,105802,2
49.210862159729004,-649,-1786,704,105810,2
49.251017808914185,-703,-1810,716,105850,2
49.29085731506348,-695,-1859,621,105913,2
49.330925941467285,-617,-1850,587,105950,2
49.37001061439514,-592,-1830,624,105976,2
49.40987157821655,-638,-1826,691,106006,2
49.44987630844116,-717,-1828,721,106031,2
49.4900598526001,-690,-1856,649,106131,2
49.53000330924988,-656,-1825,604,106262,2
49.570003271102905,-608,-1838,578,106387,2
49.61002564430237,-623,-1864,590,106458,2
49.649972915649414,-679,-1836,654,106222,2
49.69001340866089,-681,-1850,690,105715,2
49.73002767562866,-613,-1873,659,105440,2
49.7703971862793,-596,-1818,612,105438,2
49.81000542640686,-592,-1841,590,105529,2
49.850215673446655,-652,-1829,598,105643,2
49.89029383659363,-688,-1807,698,105638,2
49.9304575920105,-677,-1823,657,105658,2
49.96999549865723,-647,-1853,615,105690,2
50.00897407531738,-599,-1828,642,105714,2
50.04901337623596,-603,-1802,608,105841,2
50.0890007019043,-663,-1879,650,105910,2
50.12905240058899,-643,-1855,680,105928,2
50.1690034866333,-575,-1850,641,106034,2
50.20888543128967,-608,-1819,581,106203,2
50.2488431930542,-635,-1834,587,106348,2
50.28907084465027,-716,-1839,635,106250,2
50.329102993011475,-749,-1812,662,105876,2
50.36901354789734,-701,-1827,686,105600,2
50.40901017189026,-673,-1845,684,105542,2
50.448890209198,-598,-1890,645,105636,2
50.489030838012695,-558,-1869,542,105813,2
50.52924919128418,-558,-1844,539,105955,2
50.569011926651,-671,-1829,624,105984,2
50.60884952545166,-718,-1841,684,105907,2
50.648101806640625,-735,-1880,717,105808,2
50.6881217956543,-642,-1867,683,105753,2
50.72786808013916,-571,-1851,648,105848,2
50.767998695373535,-546,-1814,565,106067,2
50.807969093322754,-595,-1815,496,106311,2
50.84785509109497,-681,-1818,581,106391,2
50.88799977302551,-766,-1812,740,106325,2
50.928040504455566,-782,-1822,791,106168,2
50.96796154975891,-713,-1821,718,105875,2
51.00799608230591,-606,-1843,631,105703,2
51.048105001449585,-568,-1871,552,105738,2
51.087987184524536,-563,-1863,567,105870,2
51.127986431121826,-589,-1847,611,105893,2
51.16797614097595,-629,-1820,666,105924,2
51.20798349380493,-680,-1809,679,105932,2
51.24793887138367,-720,-1813,678,105910,2
51.2870147228241,-715,-1827,655,105960,2
51.327009201049805,-661,-1835,636,106042,2
51.36699843406677,-626,-1825,640,106095,2
51.40735602378845,-621,-1829,638,106213,2
51.447160959243774,-662,-1848,647,106275,2
51.487048625946045,-672,-1817,647,106332,2
51.52687621116638,-673,-1829,647,106409,2
51.56696343421936,-689,-1825,630,106272,2
51.60699987411499,-670,-1823,647,105970,2
51.647162675857544,-660,-1829,640,105788,2
51.68687200546265,-664,-1838,653,105706,2
51.72701048851013,-659,-1820,665,105711,2
51.766966104507446,-645,-1836,650,105715,2
51.80702543258667,-678,-1823,652,105721,2
51.84795928001404,-676,-1819,637,105688,2
51.8860080242157,-672,-1827,652,105687,2
51.925962686538696,-679,-1814,652,105708,2
51.96601891517639,-665,-1823,657,105729,2
52.00603461265564,-651,-1820,652,105742,2
52.046146631240845,-670,-1818,650,105776,2
52.08599662780762,-682,-1816,652,105761,2
52.12597918510437,-670,-1810,673,105793,2
52.16648507118225,-686,-1819,675,105731,2
52.20597982406616,-693,-1803,648,105497,2
52.246124029159546,-680,-1805,640,105224,2
52.28595590591431,-675,-1822,641,105123,2
52.32596135139465,-681,-1820,657,105129,2
52.365962982177734,-657,-1809,667,105128,2
52.405884981155396,-661,-1818,642,105217,2
52.446707010269165,-686,-1822,646,105219,2
52.48502159118652,-674,-1817,675,105185,2
52.52499985694885,-664,-1830,670,105168,2
52.565186977386475,-687,-1846,660,105236,2
52.60496163368225,-673,-1834,638,105335,2
52.645012855529785,-662,-1825,614,105433,2
52.68497371673584,-673,-1829,631,105481,2
52.72500705718994,-673,-1825,669,105541,2
52.76499366760254,-699,-1829,690,105533,2
52.805017948150635,-705,-1820,645,105450,2
52.845009088516235,-660,-1826,607,105235,2
52.884994983673096,-683,-1836,619,105087,2
52.924965381622314,-693,-1828,660,105029,2
52.965142488479614,-673,-1816,666,105017,2
53.00496578216553,-675,-1816,651,105087,2
53.04498744010925,-699,-1823,628,105141,2
53.08396244049072,-681,-1818,628,105150,2
53.12404465675354,-688,-1823,635,105157,2
53.16460657119751,-679,-1825,646,105163,2
53.203977823257446,-665,-1822,647,105199,2
53.24396991729736,-669,-1833,631,105268,2
53.28399896621704,-679,-1834,638,105303,2
53.32398748397827,-686,-1822,633,105366,2
53.36395478248596,-682,-1837,654,105357,2
53.403972148895264,-697,-1826,637,105277,2
53.44402623176575,-669,-1809,640,104980,2
53.4839825630188,-678,-1824,633,104765,2
53.52399945259094,-701,-1830,658,104692,2
53.564167499542236,-668,-1814,660,104695,2
53.60419297218323,-652,-1825,640,104783,2
53.64397215843201,-686,-1827,633,104815,2
53.6829731464386,-688,-1811,646,104792,2
53.723002433776855,-691,-1811,651,104727,2
53.763293981552124,-690,-1812,654,104665,2
53.80296754837036,-672,-1826,646,104653,2
53.84303331375122,-678,-1829,620,104721,2
53.882954835891724,-669,-1823,644,104790,2
53.92297172546387,-667,-1818,673,104818,2
53.96389055252075,-665,-1836,660,104829,2
54.002995014190674,-689,-1815,637,104667,2
54.043004751205444,-683,-1804,636,104371,2
54.08296012878418,-696,-1826,635,104190,2
54.12297081947327,-693,-1827,665,104125,2
54.163304567337036,-661,-1814,664,104133,2
54.202999114990234,-658,-1832,636,104225,2
54.24296164512634,-669,-1821,637,104267,2
54.282023668289185,-668,-1817,645,104243,2
54.32195830345154,-681,-1821,649,104227,2
54.362038373947144,-682,-1829,652,104237,2
54.40198564529419,-677,-1821,652,104286,2
54.44193959236145,-645,-1826,636,104417,2
54.4819540977478,-655,-1832,634,104520,2
54.521939516067505,-670,-1825,664,104569,2
54.561959981918335,-685,-1838,669,104519,2
54.60197424888611,-689,-1808,634,104322,2
54.64193797111511,-664,-1819,629,104020,2
54.68195915222168,-688,-1831,637,103924,2
54.72195768356323,-670,-1839,648,103892,2
54.762012243270874,-657,-1816,659,103895,2
54.802003622055054,-669,-1815,641,103934,2
54.84197998046875,-688,-1825,633,103986,2
54.88101601600647,-680,-1838,638,103978,2
54.92098307609558,-665,-1840,666,103956,2
54.96096849441528,-650,-1827,655,104015,2
55.00119090080261,-653,-1829,629,104083,2
55.04101514816284,-692,-1820,641,104103,2
55.081050157547,-683,-1819,658,104160,2
55.12100338935852,-648,-1832,646,104249,2
55.161030530929565,-671,-1830,674,104257,2
55.201096534729004,-670,-1820,645,104024,2
55.24097752571106,-670,-1823,641,103791,2
55.28121733665466,-685,-1821,655,103743,2
55.37262749671936,-673,-1827,667,103678,2
55.373565673828125,-646,-1811,673,103715,2
55.40095043182373,-665,-1824,638,103814,2
55.43995928764343,-692,-1826,648,103837,2
55.48000621795654,-658,-1822,666,103827,2
55.519978046417236,-649,-1828,654,103846,2
55.5599799156189,-667,-1828,665,103883,2
55.60012602806091,-652,-1822,653,103971,2
55.63996744155884,-672,-1816,652,104026,2
55.67998719215393,-695,-1803,671,104064,2
55.71997427940369,-681,-1833,664,104076,2
55.75995898246765,-685,-1833,649,103958,2
55.79996204376221,-644,-1812,635,103691,2
55.84034013748169,-649,-1818,675,103517,2
55.88013482093811,-684,-1818,699,103450,2
55.91998219490051,-684,-1805,676,103467,2
55.95994186401367,-669,-1814,648,103549,2
55.99995303153992,-689,-1815,643,103606,2
56.03898096084595,-669,-1821,673,103578,2
56.078980922698975,-648,-1828,687,103515,2
56.118974924087524,-647,-1830,679,103504,2
56.1589674949646,-660,-1823,669,103574,2
56.19897103309631,-660,-1816,659,103622,2
56.23897695541382,-672,-1800,663,103653,2
56.279061794281006,-679,-1804,663,103676,2
56.31895303726196,-680,-1824,660,103616,2
56.35918188095093,-679,-1804,660,103383,2
56.39915180206299,-671,-1817,679,103158,2
56.43921780586243,-669,-1815,692,103134,2
56.479177951812744,-654,-1823,676,103177,2
56.519203424453735,-663,-1807,668,103278,2
56.55897521972656,-680,-1820,656,103374,2
56.5980281829834,-678,-1811,662,103397,2
56.63799262046814,-655,-1813,692,103392,2
56.6779580116272,-650,-1813,685,103405,2
56.7179753780365,-660,-1827,661,103508,2
56.75795316696167,-650,-1815,639,103588,2
56.79799699783325,-670,-1810,665,103601,2
56.83795523643494,-682,-1810,686,103654,2
56.87796902656555,-682,-1822,680,103676,2
56.917972803115845,-664,-1828,672,103661,2
56.95796871185303,-667,-1807,664,103456,2
56.99795579910278,-653,-1818,666,103282,2
57.037943840026855,-670,-1829,667,103252,2
57.077948570251465,-672,-1832,676,103254,2
57.11795234680176,-659,-1803,674,103335,2
57.15798592567444,-687,-1812,665,103422,2
57.19768977165222,-682,-1817,661,103458,2
57.23696970939636,-659,-1828,645,103466,2
57.27770733833313,-655,-1831,668,103484,2
57.31699752807617,-655,-1828,678,103457,2
57.35723423957825,-651,-1818,666,103490,2
57.39739799499512,-684,-1821,647,103532,2
57.43703079223633,-663,-1819,658,103522,2
57.477015018463135,-668,-1809,664,103501,2
57.516971588134766,-688,-1822,689,103446,2
57.55700969696045,-687,-1807,652,103266,2
57.59720826148987,-668,-1823,644,103060,2
57.63699173927307,-669,-1839,657,102973,2
57.67702603340149,-655,-1822,676,102900,2
57.71699285507202,-639,-1813,683,102877,2
57.75718116760254,-669,-1821,642,102936,2
57.796125411987305,-697,-1817,635,102949,2
57.83602857589722,-683,-1818,650,102902,2
57.87600374221802,-672,-1832,660,102870,2
57.916335582733154,-649,-1825,681,102867,2
57.95611310005188,-654,-1830,670,102897,2
57.99607062339783,-672,-1828,630,102927,2
58.03604984283447,-667,-1823,628,102948,2
58.07640743255615,-674,-1815,654,102916,2
58.116313457489014,-680,-1818,679,102905,2
58.156092405319214,-679,-1829,657,102807,2
58.196457862854004,-656,-1812,630,102594,2
58.23604130744934,-655,-1821,644,102428,2
58.27612614631653,-673,-1830,654,102303,2
58.31634044647217,-675,-1816,670,102277,2
58.35613036155701,-664,-1811,668,102284,2
58.39501881599426,-682,-1824,652,102390,2
58.4352970123291,-674,-1814,634,102444,2
58.475131034851074,-659,-1821,650,102447,2
58.51509380340576,-650,-1825,655,102504,2
58.555039167404175,-662,-1826,652,102522,2
58.5950345993042,-669,-1825,654,102571,2
58.63510060310364,-675,-1816,650,102582,2
58.67511057853699,-677,-1813,666,102558,2
58.7150399684906,-678,-1828,657,102573,2
58.75511121749878,-668,-1807,655,102554,2
58.795058488845825,-681,-1830,664,102469,2
58.83512353897095,-677,-1805,644,102207,2
58.8750524520874,-657,-1811,656,101744,2
58.915055990219116,-686,-1828,658,101366,2
58.955161333084106,-687,-1818,663,101003,2
58.995107650756836,-646,-1812,661,100625,2
59.03406834602356,-677,-1806,649,100396,2
59.07407784461975,-690,-1819,645,100229,2
59.11412286758423,-674,-1812,656,100032,2
59.1540744304657,-663,-1819,667,99865,2
59.19418025016785,-673,-1820,668,99783,2
59.234065771102905,-688,-1822,663,99847,2
59.27410006523132,-675,-1821,637,99901,2
59.31412863731384,-674,-1820,643,99949,2
59.35409331321716,-677,-1817,657,99954,2
59.394059896469116,-676,-1824,662,99949,2
59.434093713760376,-688,-1815,639,100048,2
59.47404670715332,-687,-1818,646,100161,2
59.51432943344116,-687,-1827,645,100210,2
59.554131507873535,-662,-1822,649,100160,2
59.59407138824463,-660,-1819,654,100094,2
59.633161544799805,-699,-1832,642,100170,2
59.67307686805725,-687,-1823,651,100264,2
59.713850259780884,-675,-1806,661,100374,2
59.75308847427368,-659,-1812,637,100494,2
59.79304099082947,-701,-1833,641,100611,2
59.83354043960571,-672,-1818,656,100782,2
59.87306571006775,-668,-1833,646,100953,2
59.91320562362671,-676,-1828,646,100977,2
59.95313024520874,-675,-1822,652,100995,2
59.99309062957764,-668,-1826,651,100990,2
60.03308320045471,-681,-1828,651,100918,2
60.07303786277771,-671,-1817,637,100857,2
60.113168478012085,-680,-1825,638,100820,2
60.153035402297974,-689,-1821,658,100762,2
60.19306659698486,-666,-1821,666,100718,2
60.23304724693298,-658,-1841,640,100801,2
60.272034645080566,-676,-1818,624,100699,2
60.312721252441406,-667,-1820,649,100511,2
60.35203313827515,-697,-1831,656,100506,2
60.39204454421997,-679,-1822,669,100622,2
60.43229603767395,-653,-1810,657,100719,2
60.47211217880249,-681,-1827,626,100851,2
60.512097120285034,-691,-1821,630,100977,2
60.55207896232605,-675,-1812,654,101030,2
60.592044830322266,-660,-1826,652,101105,2
60.63209366798401,-662,-1832,651,101237,2
60.67208528518677,-678,-1816,633,101363,2
60.71219778060913,-665,-1827,626,101523,2
60.7520751953125,-678,-1830,643,101617,2
60.79208183288574,-671,-1825,655,101672,2
60.832122564315796,-673,-1818,652,101811,2
60.87211585044861,-668,-1817,638,101946,2
60.911168575286865,-682,-1830,641,102019,2
60.95107173919678,-687,-1839,636,101977,2
60.99105787277222,-655,-1812,636,101785,2
61.03109097480774,-654,-1827,638,101657,2
61.0711133480072,-681,-1831,647,101672,2
61.11116886138916,-668,-1834,652,101713,2
61.151039361953735,-653,-1813,630,101799,2
61.19105362892151,-683,-1826,629,101827,2
61.23206305503845,-689,-1817,641,101814,2
61.271124839782715,-659,-1825,650,101785,2
61.31107759475708,-653,-1837,637,101808,2
61.35104322433472,-670,-1835,640,101855,2
61.39104175567627,-666,-1828,637,101923,2
61.43104338645935,-677,-1827,624,101998,2
61.47106051445007,-676,-1823,649,102031,2
61.51109313964844,-688,-1827,642,102064,2
61.55106282234192,-653,-1822,640,102110,2
61.59006142616272,-669,-1821,637,102204,2
61.630375623703,-689,-1831,641,102237,2
61.6700918674469,-674,-1831,639,102169,2
61.710028886795044,-674,-1822,629,102000,2
61.750046491622925,-673,-1818,647,101829,2
61.79010319709778,-681,-1848,646,101778,2
61.83024477958679,-678,-1830,645,101811,2
61.87017822265625,-670,-1817,656,101854,2
61.910128116607666,-683,-1824,640,101884,2
61.95006990432739,-688,-1810,653,101819,2
61.990137577056885,-686,-1811,654,101775,2
62.030325174331665,-683,-1823,644,101821,2
62.070082664489746,-679,-1827,651,101842,2
62.11004614830017,-657,-1826,642,101917,2
62.15004849433899,-662,-1827,632,102012,2
62.18910193443298,-685,-1818,639,102054,2
62.22913193702698,-690,-1813,657,102082,2
62.269044399261475,-683,-1816,652,102129,2
62.30916094779968,-670,-1819,639,102146,2
62.34904623031616,-661,-1832,654,102170,2
62.38901686668396,-669,-1843,660,102188,2
62.42917346954346,-670,-1817,635,102038,2
62.4691321849823,-668,-1803,648,101774,2
62.509053468704224,-709,-1833,654,101596,2
62.54905033111572,-693,-1817,671,101549,2
62.58911442756653,-659,-1811,656,101685,2
62.62912082672119,-670,-1827,625,101789,2
62.669103384017944,-697,-1828,629,101832,2
62.70909571647644,-668,-1814,655,101798,2
62.748069763183594,-669,-1821,652,101794,2
62.78807544708252,-663,-1842,645,101865,2
62.82809281349182,-671,-1815,645,101935,2
62.86809468269348,-667,-1819,622,102017,2
62.90807628631592,-694,-1823,637,102089,2
62.948235511779785,-688,-1825,648,102103,2
62.98802351951599,-668,-1819,652,102150,2
63.02802109718323,-671,-1817,648,102248,2
63.0680730342865,-666,-1831,642,102337,2
63.10808324813843,-680,-1835,634,102341,2
63.14815354347229,-663,-1815,630,102174,2
63.188042879104614,-679,-1827,651,101969,2
63.22834897041321,-691,-1823,647,101883,2
63.26815629005432,-659,-1820,652,101957,2
63.30808901786804,-666,-1830,626,102088,2
63.347203731536865,-707,-1829,616,102168,2
63.38706564903259,-690,-1809,646,102154,2
63.42714595794678,-669,-1823,638,102150,2
63.46709990501404,-704,-1832,620,102202,2
63.50709652900696,-669,-1842,622,102253,2
63.54737997055054,-622,-1835,628,102322,2
63.5870943069458,-642,-1853,622,102369,2
63.62712860107422,-679,-1829,641,102366,2
63.667109966278076,-694,-1828,627,102380,2
63.707077741622925,-697,-1820,615,102388,2
63.74727654457092,-695,-1819,638,102404,2
63.78710341453552,-691,-1842,631,102388,2
63.82710886001587,-678,-1828,607,102226,2
63.86710000038147,-639,-1838,614,102032,2
63.90710091590881,-664,-1835,621,101985,2
63.94604969024658,-685,-1825,642,102039,2
63.98603057861328,-684,-1810,639,102128,2
64.02604556083679,-700,-1834,599,102229,2
64.06604623794556,-694,-1837,604,102295,2
64.10607099533081,-677,-1832,626,102261,2
64.14606761932373,-670,-1836,629,102230,2
64.18602132797241,-670,-1838,626,102261,2
64.2261106967926,-674,-1835,614,102329,2
64.26599836349487,-676,-1821,603,102349,2
64.30602860450745,-692,-1829,621,102357,2
64.34618544578552,-697,-1832,616,102399,2
64.38609027862549,-695,-1828,620,102432,2
64.4260630607605,-678,-1822,617,102484,2
64.46610426902771,-666,-1854,641,102501,2
64.50519633293152,-664,-1833,617,102371,2
64.54507684707642,-662,-1821,613,102111,2
64.58511018753052,-708,-1835,626,101950,2
64.62511825561523,-713,-1829,621,101940,2
64.66520857810974,-682,-1822,631,101989,2
64.70503187179565,-673,-1833,629,102014,2
64.74507665634155,-683,-1830,620,102009,2
64.78506302833557,-659,-1831,631,101960,2
64.82508087158203,-659,-1841,616,101927,2
64.86505675315857,-696,-1827,641,101859,2
64.90509796142578,-686,-1815,644,101869,2
64.94514036178589,-692,-1818,615,101945,2
64.98507952690125,-689,-1821,619,102005,2
65.02510786056519,-685,-1831,626,102042,2
65.06424713134766,-663,-1823,647,102091,2
65.1040244102478,-670,-1814,642,102149,2
65.144038438797,-703,-1837,636,102214,2
65.1840455532074,-704,-1810,617,102096,2
65.2241599559784,-666,-1810,623,101814,2
65.26417064666748,-688,-1834,634,101676,2
65.31225872039795,-683,-1833,662,101683,2
65.34404683113098,-656,-1826,655,101780,2
65.3841073513031,-663,-1830,626,101903,2
65.42404556274414,-692,-1843,633,101887,2
65.46408724784851,-680,-1818,639,101824,2
65.5040454864502,-663,-1823,636,101814,2
65.54407906532288,-695,-1831,642,101834,2
65.584064245224,-679,-1818,636,101903,2
65.62417030334473,-671,-1825,640,102001,2
65.6633083820343,-674,-1823,638,102086,2
65.70308685302734,-658,-1825,650,102118,2
65.74308061599731,-674,-1828,646,102169,2
65.78306031227112,-689,-1820,631,102224,2
65.82312655448914,-689,-1837,645,102250,2
65.86343598365784,-685,-1810,629,102172,2
65.90306448936462,-655,-1813,644,101841,2
65.94315576553345,-675,-1828,652,101677,2
65.98306083679199,-689,-1832,653,101742,2
66.02302932739258,-663,-1806,647,101861,2
66.06325435638428,-666,-1824,626,102006,2
66.10304975509644,-701,-1824,621,102072,2
66.14317893981934,-680,-1820,633,102055,2
66.18319964408875,-661,-1829,639,102017,2
66.22307825088501,-676,-1837,647,102022,2
66.26209831237793,-665,-1826,643,102087,2
66.30208492279053,-668,-1826,626,102209,2
66.34210276603699,-683,-1826,630,102287,2
66.38204789161682,-684,-1819,648,102324,2
66.42209458351135,-670,-1828,628,102362,2
66.46207785606384,-685,-1819,661,102400,2
66.50207161903381,-690,-1838,646,102359,2
66.54212069511414,-677,-1821,641,102066,2
66.58211755752563,-675,-1820,644,101816,2
66.62206530570984,-695,-1834,630,101747,2
66.66211438179016,-679,-1836,641,101793,2
66.70211791992188,-667,-1817,647,101865,2
66.74205565452576,-692,-1824,628,101997,2
66.78216361999512,-689,-1820,641,102054,2
66.82112765312195,-668,-1827,626,102094,2
66.86114263534546,-671,-1837,633,102116,2
66.90100145339966,-685,-1824,641,102159,2
66.94108891487122,-681,-1822,632,102201,2
66.98120903968811,-699,-1829,625,102273,2
67.02106618881226,-694,-1824,622,102305,2
67.06114029884338,-681,-1820,637,102304,2
67.10104298591614,-668,-1812,654,102303,2
67.14110708236694,-685,-1834,663,102287,2
67.18144702911377,-691,-1819,620,102111,2
67.22104740142822,-669,-1818,608,101799,2
67.2610981464386,-689,-1825,639,101625,2
67.30108714103699,-686,-1826,654,101611,2
67.34106183052063,-673,-1815,650,101697,2
67.38137912750244,-672,-1827,622,101770,2
67.4201672077179,-687,-1830,613,101716,2
67.46007370948792,-690,-1808,643,101578,2
67.50006127357483,-669,-1831,640,101511,2
67.5401246547699,-676,-1833,641,101498,2
67.58038020133972,-684,-1819,648,101486,2
67.62010765075684,-680,-1816,643,101524,2
67.66017365455627,-692,-1826,635,101435,2
67.70046663284302,-687,-1819,638,101253,2
67.74035000801086,-677,-1811,638,101124,2
67.78051853179932,-685,-1811,642,101026,2
67.82015252113342,-708,-1841,631,100873,2
67.86015200614929,-667,-1814,637,100458,2
67.90011620521545,-656,-1819,654,100039,2
67.94014239311218,-707,-1825,644,99823,2
67.9805359840393,-698,-1824,650,99782,2
68.01914024353027,-662,-1814,642,99772,2
68.0593798160553,-680,-1823,640,99870,2
68.09915328025818,-687,-1823,650,99922,2
68.13921570777893,-669,-1817,654,99906,2
68.17915415763855,-650,-1837,635,99936,2
68.21908164024353,-677,-1826,640,100036,2
68.25911712646484,-681,-1822,654,100071,2
68.29918313026428,-676,-1821,642,100129,2
68.33910012245178,-691,-1825,622,100242,2
68.3790831565857,-675,-1820,642,100290,2
68.41906428337097,-669,-1832,655,100298,2
68.45904040336609,-663,-1817,666,100290,2
68.49904990196228,-673,-1846,650,100347,2
68.53928899765015,-682,-1818,612,100188,2
68.57806611061096,-649,-1823,628,99920,2
68.6180636882782,-707,-1834,624,99911,2
68.65812230110168,-687,-1822,654,100001,2
68.69846153259277,-666,-1806,644,100171,2
68.73810195922852,-672,-1837,636,100337,2
68.77810001373291,-697,-1829,622,100395,2
68.81812953948975,-683,-1824,629,100420,2
68.85881924629211,-662,-1839,650,100408,2
68.89821243286133,-669,-1826,641,100493,2
68.93807983398438,-648,-1824,641,100598,2
68.9780650138855,-681,-1832,618,100647,2
69.01807570457458,-710,-1823,630,100605,2
69.05808544158936,-688,-1817,650,100534,2
69.09808731079102,-699,-1812,629,100605,2
69.13808727264404,-699,-1829,640,100700,2
69.1781873703003,-681,-1825,618,100677,2
69.21709656715393,-660,-1814,615,100470,2
69.25711917877197,-681,-1833,629,100372,2
69.29713988304138,-693,-1828,654,100432,2
69.33709049224854,-670,-1825,641,100490,2
69.37714695930481,-682,-1819,633,100558,2
69.41713404655457,-702,-1838,630,100661,2
69.4571738243103,-692,-1825,631,100667,2
69.4977593421936,-666,-1826,629,100644,2
69.53714108467102,-680,-1828,640,100678,2
69.5771152973175,-688,-1821,636,100713,2
69.61710357666016,-688,-1819,648,100774,2
69.65713834762573,-711,-1822,629,100846,2
69.69749760627747,-712,-1807,636,100911,2
69.73707580566406,-693,-1805,639,101045,2
69.77714133262634,-674,-1825,647,101123,2
69.81621408462524,-671,-1831,665,101196,2
69.85645771026611,-687,-1835,649,101134,2
69.89628052711487,-664,-1815,620,100851,2
69.93612670898438,-685,-1821,629,100685,2
69.9762282371521,-712,-1825,647,100658,2
70.01606917381287,-677,-1813,674,100681,2
70.05642700195312,-676,-1801,672,100707,2
70.09637832641602,-693,-1808,658,100765,2
70.13622188568115,-709,-1813,626,100813,2
70.17613959312439,-686,-1799,651,100751,2
70.21614027023315,-687,-1811,655,100727,2
70.25622344017029,-691,-1817,650,100734,2
70.29621720314026,-676,-1813,669,100769,2
70.33618879318237,-683,-1808,651,100851,2
70.37611794471741,-698,-1817,641,100917,2
70.4151086807251,-701,-1805,663,100918,2
70.45517778396606,-680,-1802,659,101011,2
70.49515104293823,-673,-1814,659,101068,2
70.53513693809509,-684,-1825,674,101056,2
70.57514977455139,-684,-1813,652,100903,2
70.61513614654541,-669,-1813,654,100650,2
70.65515208244324,-689,-1816,654,100579,2
70.69509696960449,-708,-1820,655,100648,2
70.73512768745422,-680,-1816,663,100700,2
70.77512550354004,-679,-1810,666,100751,2
70.81518292427063,-698,-1821,646,100804,2
70.85515451431274,-685,-1814,665,100801,2
70.89517378807068,-660,-1825,648,100861,2
70.93512868881226,-680,-1829,659,100929,2
70.97416234016418,-681,-1812,672,100959,2
71.0146415233612,-672,-1812,663,101055,2
71.05416059494019,-699,-1821,647,101132,2
71.09412288665771,-684,-1811,644,101197,2
71.13417768478394,-681,-1801,655,101249,2
71.17412948608398,-684,-1809,660,101310,2
71.21460056304932,-669,-1813,661,101416,2
71.25414967536926,-691,-1828,648,101425,2
71.29447722434998,-679,-1803,647,101236,2
71.33414077758789,-678,-1823,648,101031,2
71.37407875061035,-704,-1828,674,101035,2
71.41436576843262,-674,-1820,677,101133,2
71.45414447784424,-658,-1800,657,101205,2
71.49414873123169,-700,-1820,654,101290,2
71.53408932685852,-711,-1822,662,101320,2
71.5731418132782,-685,-1804,658,101324,2
71.61332201957703,-676,-1827,651,101358,2
71.65311098098755,-683,-1824,662,101394,2
71.6931369304657,-674,-1825,658,101499,2
71.73316645622253,-685,-1818,640,101599,2
71.77314376831055,-691,-1830,649,101684,2
71.81318926811218,-696,-1821,659,101778,2
71.8531219959259,-678,-1810,640,101883,2
71.89326190948486,-697,-1841,663,101961,2
71.9331202507019,-691,-1821,632,101869,2
71.97312569618225,-658,-1812,625,101573,2
72.01319599151611,-698,-1814,658,101400,2
72.05328917503357,-688,-1816,675,101424,2
72.09309554100037,-660,-1815,660,101521,2
72.13313484191895,-712,-1808,635,101621,2
72.1721396446228,-719,-1809,632,101679,2
72.2121102809906,-715,-1799,642,101686,2
72.25211095809937,-675,-1816,637,101746,2
72.29211831092834,-674,-1837,636,101803,2
72.33211660385132,-661,-1836,646,101841,2
72.37216329574585,-660,-1816,644,101867,2
72.412100315094,-675,-1828,646,101910,2
72.45216584205627,-716,-1826,645,101940,2
72.49214124679565,-684,-1824,628,102002,2
72.53249287605286,-676,-1823,619,102101,2
72.57212281227112,-705,-1823,649,102085,2
72.61210060119629,-687,-1818,651,101925,2
72.65210366249084,-680,-1825,644,101730,2
72.69211220741272,-702,-1820,628,101744,2
72.73265099525452,-701,-1823,641,101827,2
72.77152562141418,-678,-1807,649,101913,2
72.8111252784729,-703,-1807,641,101965,2
72.85115838050842,-709,-1822,643,101982,2
72.89111232757568,-697,-1818,651,101956,2
72.93147873878479,-671,-1832,647,101958,2
72.97112917900085,-681,-1825,656,101994,2
73.01119375228882,-689,-1822,643,102055,2
73.05117845535278,-693,-1825,635,102104,2
73.09111332893372,-709,-1808,623,102147,2
73.13190579414368,-693,-1820,644,102169,2
73.1711266040802,-695,-1823,653,102186,2
73.21113705635071,-683,-1809,657,102187,2
73.25113534927368,-686,-1835,649,102218,2
73.29113006591797,-696,-1820,628,102155,2
73.33111357688904,-665,-1801,644,102004,2
73.37012910842896,-701,-1816,624,101948,2
73.41013073921204,-722,-1818,655,101980,2
73.45010352134705,-692,-1816,668,102031,2
73.49014568328857,-664,-1816,652,102099,2
73.53039455413818,-700,-1820,647,102142,2
73.57011342048645,-684,-1821,635,102173,2
73.61011695861816,-674,-1809,642,102201,2
73.65011715888977,-706,-1816,649,102219,2
73.69049453735352,-686,-1817,669,102237,2
73.73036479949951,-674,-1830,647,102264,2
73.77011179924011,-683,-1810,659,102305,2
73.81017541885376,-681,-1806,656,102386,2
73.8501136302948,-686,-1831,648,102533,2
73.89011979103088,-708,-1815,675,102630,2
73.9291365146637,-713,-1817,661,102644,2
73.96914029121399,-672,-1792,638,102563,2
74.00915122032166,-686,-1816,650,102480,2
74.04917001724243,-713,-1810,671,102481,2
74.08937764167786,-689,-1810,679,102549,2
74.12935662269592,-667,-1819,659,102609,2
74.169114112854,-686,-1823,649,102683,2
74.20915699005127,-686,-1809,654,102667,2
74.24914860725403,-695,-1827,649,102660,2
74.28916382789612,-696,-1818,668,102612,2
74.32915997505188,-690,-1811,683,102598,2
74.36911845207214,-688,-1806,656,102687,2
74.40914702415466,-680,-1816,634,102737,2
74.4491319656372,-680,-1815,627,102813,2
74.4891676902771,-707,-1805,634,102863,2
74.52925086021423,-702,-1817,659,102916,2
74.56814241409302,-710,-1832,662,102864,2
74.60831451416016,-660,-1823,643,102690,2
74.6482560634613,-668,-1829,656,102593,2
74.68813967704773,-680,-1831,640,102626,2
74.72815370559692,-680,-1829,628,102671,2
74.76819229125977,-695,-1813,635,102697,2
74.80823302268982,-683,-1826,636,102707,2
74.84832739830017,-687,-1824,636,102659,2
74.88819289207458,-674,-1822,652,102594,2
74.92817783355713,-676,-1835,645,102558,2
74.96822547912598,-682,-1830,621,102551,2
75.00827479362488,-693,-1822,638,102511,2
75.0482075214386,-681,-1819,635,102548,2
75.08819913864136,-676,-1830,630,102596,2
75.12819743156433,-685,-1818,643,102595,2
75.16717600822449,-690,-1836,625,102580,2
75.21759915351868,-679,-1829,613,102445,2
75.25568056106567,-645,-1816,635,102272,2
75.29563307762146,-661,-1840,624,102247,2
75.32721018791199,-683,-1832,638,102284,2
75.36720204353333,-694,-1803,638,102348,2
75.40716934204102,-699,-1811,622,102420,2
75.4472975730896,-707,-1827,620,102475,2
75.48723793029785,-662,-1835,631,102479,2
75.52723217010498,-644,-1842,638,102465,2
75.56737399101257,-662,-1843,646,102510,2
75.60721325874329,-690,-1827,652,102532,2
75.64821338653564,-691,-1810,633,102697,2
75.68724918365479,-677,-1818,640,102901,2
75.72715878486633,-682,-1817,641,103100,2
75.76621699333191,-676,-1836,645,103370,2
75.80630254745483,-700,-1833,629,103534,2
75.84635329246521,-666,-1820,621,103558,2
75.88615489006042,-675,-1837,633,103544,2
75.92626333236694,-695,-1835,658,103552,2
75.96632671356201,-684,-1816,635,103620,2
76.00619506835938,-658,-1823,616,103674,2
76.04623198509216,-692,-1825,618,103682,2
76.08621525764465,-690,-1816,640,103633,2
76.12620449066162,-687,-1831,636,103620,2
76.16634130477905,-690,-1822,640,103657,2
76.2062623500824,-677,-1837,656,103676,2
76.24659299850464,-663,-1830,645,103710,2
76.28619194030762,-659,-1824,643,103736,2
76.32622289657593,-693,-1817,629,103775,2
76.36516571044922,-700,-1827,637,103784,2
76.40517067909241,-695,-1830,644,103680,2
76.44516396522522,-664,-1814,652,103526,2
76.48519563674927,-667,-1826,635,103510,2
76.52522373199463,-689,-1833,604,103540,2
76.56521725654602,-683,-1815,627,103590,2
76.60520839691162,-678,-1821,641,103624,2
76.64522767066956,-703,-1828,656,103623,2
76.68519377708435,-696,-1815,665,103607,2
76.72528910636902,-679,-1819,632,103625,2
76.76539731025696,-677,-1840,632,103680,2
76.8051826953888,-675,-1830,646,103696,2
76.84530234336853,-675,-1820,645,103714,2
76.8852026462555,-682,-1825,637,103746,2
76.9252347946167,-702,-1816,626,103781,2
76.96486210823059,-677,-1838,651,103773,2
77.00418758392334,-686,-1832,649,103685,2
77.0442271232605,-671,-1814,646,103474,2
77.08419179916382,-655,-1830,661,103389,2
77.12423729896545,-688,-1841,656,103431,2
77.16419315338135,-672,-1807,653,103497,2
77.20422506332397,-676,-1817,637,103588,2
77.24484086036682,-712,-1815,624,103639,2
77.28427124023438,-711,-1818,646,103632,2
77.32433199882507,-678,-1826,663,103614,2
77.36443281173706,-667,-1827,656,103629,2
77.40416955947876,-660,-1824,654,103724,2
77.4442036151886,-675,-1837,609,103835,2
77.48423790931702,-677,-1820,619,103899,2
77.52422165870667,-679,-1809,638,103893,2
77.56323027610779,-687,-1837,671,103886,2
77.60324478149414,-685,-1812,640,103803,2
77.64325857162476,-656,-1817,631,103706,2
77.68320775032043,-682,-1829,618,103675,2
77.723228931427,-682,-1838,655,103675,2
77.76419472694397,-666,-1809,669,103634,2
77.80319213867188,-676,-1830,645,103626,2
77.8432080745697,-707,-1826,629,103648,2
77.88319945335388,-675,-1820,630,103594,2
77.92322874069214,-672,-1825,643,103547,2
77.96340417861938,-677,-1833,652,103510,2
78.00329566001892,-671,-1824,648,103514,2
78.04321646690369,-673,-1816,623,103540,2
78.08316898345947,-691,-1817,622,103580,2
78.12321543693542,-706,-1816,637,103572,2
78.16216135025024,-694,-1831,647,103488,2
78.20221638679504,-674,-1806,639,103354,2
78.24220848083496,-672,-1823,620,103289,2
78.28214979171753,-674,-1835,618,103293,2
78.32226490974426,-669,-1827,648,103309,2
78.36223316192627,-685,-1813,662,103329,2
78.40227055549622,-693,-1823,632,103353,2
78.44222712516785,-706,-1828,624,103359,2
78.48223352432251,-671,-1822,624,103331,2
78.52296257019043,-662,-1827,640,103294,2
78.56216740608215,-667,-1825,653,103291,2
78.60220909118652,-687,-1831,630,103340,2
78.6422073841095,-678,-1817,611,103390,2
78.68217468261719,-688,-1819,622,103433,2
78.72258520126343,-696,-1829,640,103423,2
78.76122450828552,-688,-1830,643,103401,2
78.80136203765869,-661,-1811,619,103283,2
78.84124779701233,-662,-1835,616,103202,2
78.8815712928772,-688,-1834,631,103199,2
78.92129778862,-672,-1832,641,103232,2
78.96125650405884,-668,-1823,634,103305,2
79.00125074386597,-694,-1841,620,103365,2
79.0413429737091,-704,-1823,626,103356,2
79.08130955696106,-671,-1823,634,103331,2
79.12127685546875,-676,-1838,626,103348,2
79.16155457496643,-678,-1827,634,103385,2
79.20212745666504,-672,-1827,634,103428,2
79.24121117591858,-685,-1821,622,103433,2
79.28122806549072,-683,-1824,615,103447,2
79.32120180130005,-689,-1815,628,103500,2
79.36146402359009,-687,-1831,643,103533,2
79.40016627311707,-691,-1829,631,103475,2
79.44019865989685,-674,-1821,630,103246,2
79.48038148880005,-679,-1832,638,103092,2
79.52029490470886,-707,-1837,641,103126,2
79.56023287773132,-685,-1824,642,103150,2
79.60021424293518,-671,-1818,632,103164,2
79.64029240608215,-703,-1829,628,103205,2
79.68062019348145,-697,-1818,636,103174,2
79.72024011611938,-682,-1820,633,103134,2
79.76033067703247,-693,-1830,632,103117,2
79.80022859573364,-671,-1831,640,103133,2
79.8402807712555,-675,-1826,632,103184,2
79.88041687011719,-682,-1830,641,103230,2
79.92028594017029,-712,-1813,639,103238,2
79.96024250984192,-703,-1819,638,103244,2
