Timestamp,AccX,AccY,AccZ,Heart_IR,Phase
0.034096717834472656,-1195,-1522,788,117095,0
0.07377195358276367,-1151,-1485,808,117070,0
0.11373066902160645,-1104,-1437,811,117077,0
0.15383219718933105,-1086,-1423,813,117081,0
0.19437885284423828,-1105,-1403,814,117120,0
0.23376083374023438,-1113,-1466,655,117169,0
0.27280259132385254,-1176,-1442,591,117190,0
0.3127174377441406,-1291,-1440,529,117216,0
0.35274267196655273,-1351,-1419,527,117235,0
0.3927323818206787,-1404,-1450,490,117261,0
0.43274450302124023,-1410,-1461,493,117143,0
0.47278547286987305,-1343,-1451,527,116791,0
0.5127217769622803,-1313,-1458,581,116803,0
0.5527467727661133,-1280,-1468,622,116950,0
0.5930483341217041,-1228,-1468,647,117025,0
0.6327106952667236,-1202,-1500,678,117061,0
0.6728000640869141,-1163,-1523,684,117087,0
0.7130076885223389,-1142,-1535,661,117085,0
0.7518165111541748,-1195,-1515,647,117134,0
0.7917218208312988,-1189,-1546,650,117165,0
0.8317093849182129,-1173,-1572,637,117196,0
0.8717379570007324,-1168,-1586,608,117220,0
0.9117321968078613,-1190,-1610,643,117234,0
0.9518496990203857,-1242,-1677,670,117246,0
0.9919252395629883,-1286,-1619,627,117245,0
1.0317373275756836,-1215,-1454,636,117222,0
1.0717837810516357,-1112,-1390,678,117176,0
1.1118295192718506,-1088,-1351,663,116913,0
1.151777744293213,-1078,-1409,565,116798,0
1.1924796104431152,-1125,-1581,574,116955,0
1.2308752536773682,-1198,-1953,658,117073,0
1.2711870670318604,-1316,-1918,531,117122,0
1.3110899925231934,-1254,-1599,421,117173,0
1.3508586883544922,-1085,-1327,563,117181,0
1.3912761211395264,-1074,-1231,790,117196,0
1.4309585094451904,-1096,-1400,862,117182,0
1.4708256721496582,-1209,-1681,656,117174,0
1.5107929706573486,-1271,-1732,505,117142,0
1.5554759502410889,-1282,-1627,474,117126,0
1.5910754203796387,-1191,-1462,603,117116,0
1.6311461925506592,-1172,-1401,694,117130,0
1.6696970462799072,-1211,-1489,634,117164,0
1.7102112770080566,-1238,-1572,545,116921,0
1.7497491836547852,-1299,-1564,518,116669,0
1.7898402214050293,-1352,-1497,542,116823,0
1.82973051071167,-1332,-1471,616,116984,0
1.8698382377624512,-1246,-1498,596,117068,0
1.909606695175171,-1202,-1530,585,117090,0
1.949622392654419,-1210,-1527,587,117077,0
1.9896578788757324,-1230,-1522,591,117016,0
2.030196189880371,-1215,-1542,604,117026,0
2.0696985721588135,-1181,-1523,573,117036,0
2.1102542877197266,-1190,-1537,597,117087,0
2.1486496925354004,-1204,-1550,625,117108,0
2.1886324882507324,-1212,-1588,611,117122,0
2.228888988494873,-1277,-1617,612,117145,0
2.26857590675354,-1244,-1531,586,117164,0
2.3085715770721436,-1194,-1432,684,117195,0
2.348548173904419,-1153,-1390,755,116957,0
2.388573408126831,-1162,-1416,729,116691,0
2.428541898727417,-1212,-1465,615,116774,0
2.468698501586914,-1227,-1546,550,116884,0
2.5085268020629883,-1239,-1571,533,116922,0
2.5485079288482666,-1218,-1554,520,116953,0
2.5885729789733887,-1169,-1537,517,116987,0
2.627545118331909,-1155,-1488,567,117007,0
2.667530059814453,-1183,-1505,570,117030,0
2.7075774669647217,-1226,-1521,568,117071,0
2.747577667236328,-1251,-1531,535,117128,0
2.7875545024871826,-1247,-1547,519,117160,0
2.8278322219848633,-1223,-1632,521,117172,0
2.867569923400879,-1257,-1704,501,117165,0
2.9076313972473145,-1297,-1588,416,117145,0
2.947713613510132,-1224,-1487,480,117128,0
2.987534761428833,-1164,-1467,591,117063,0
3.0275628566741943,-1110,-1507,565,116723,0
3.0676066875457764,-1119,-1589,501,116632,0
3.106588363647461,-1187,-1691,481,116800,0
3.1465466022491455,-1267,-1709,431,116932,0
3.186579704284668,-1297,-1702,379,116996,0
3.2265470027923584,-1241,-1636,378,117042,0
3.2665228843688965,-1165,-1536,395,117060,0
3.3065645694732666,-1095,-1470,453,117053,0
3.3465373516082764,-1077,-1555,511,117050,0
3.386549949645996,-1133,-1691,440,117049,0
3.426563262939453,-1174,-1748,359,117047,0
3.466503143310547,-1144,-1666,276,117034,0
3.5065791606903076,-1075,-1591,367,117043,0
3.546543598175049,-1117,-1536,529,117063,0
3.5855159759521484,-1238,-1538,602,117087,0
3.625490427017212,-1365,-1585,600,117090,0
3.665573835372925,-1442,-1641,496,116862,0
3.7055389881134033,-1482,-1683,443,116574,0
3.7454922199249268,-1444,-1653,422,116675,0
3.7855231761932373,-1332,-1600,478,116832,0
3.825485944747925,-1251,-1574,536,116877,0
3.8658621311187744,-1210,-1546,526,116886,0
3.905539035797119,-1135,-1539,524,116905,0
3.945587396621704,-1099,-1585,525,116857,0
3.985535144805908,-1053,-1631,504,116881,0
4.025501251220703,-1016,-1626,450,116924,0
4.064603090286255,-1049,-1579,428,116955,0
4.105208396911621,-1113,-1516,489,116988,0
4.144507646560669,-1197,-1496,564,117020,0
4.184486150741577,-1275,-1496,615,117039,0
4.224677801132202,-1325,-1506,571,117066,0
4.264734506607056,-1302,-1503,593,117059,0
4.304522275924683,-1227,-1525,604,117054,0
4.344658136367798,-1216,-1499,586,117032,0
4.3845086097717285,-1248,-1458,572,117027,0
4.424496650695801,-1296,-1486,596,117009,0
4.464954614639282,-1353,-1493,614,116862,0
4.5035483837127686,-1349,-1525,583,116540,0
4.543495416641235,-1280,-1549,554,116627,0
4.583502292633057,-1181,-1550,562,116772,0
4.623562335968018,-1143,-1512,561,116853,0
4.664319753646851,-1119,-1518,549,116888,0
4.703531265258789,-1130,-1521,600,116907,0
4.743498802185059,-1157,-1552,600,116903,0
4.783506155014038,-1178,-1575,594,116901,0
4.823550462722778,-1193,-1565,616,116892,0
4.863520860671997,-1212,-1536,649,116873,0
4.903719902038574,-1261,-1493,694,116869,0
4.943516492843628,-1313,-1507,679,116904,0
4.982543468475342,-1388,-1492,717,116926,0
5.022499084472656,-1311,-1488,691,116949,0
5.062911748886108,-1295,-1477,759,116962,0
5.103135108947754,-1278,-1502,715,116998,0
5.1426002979278564,-1224,-1507,657,116983,0
5.18253231048584,-1253,-1451,710,116727,0
5.2225000858306885,-1271,-1481,747,116473,0
5.262888193130493,-1262,-1478,803,116566,0
5.302602291107178,-1216,-1469,831,116701,0
5.342588663101196,-1136,-1414,785,116757,0
5.38257622718811,-1033,-1374,767,116806,0
5.422525405883789,-1050,-1364,847,116846,0
5.461543560028076,-1090,-1389,857,116857,0
5.501514196395874,-1100,-1364,868,116857,0
5.541567087173462,-996,-1362,897,116902,0
5.581667900085449,-896,-1341,890,116934,0
5.621504545211792,-1045,-1302,943,116953,0
5.661535978317261,-1224,-1387,1085,116967,0
5.7015602588653564,-1379,-1475,1092,116958,0
5.7415547370910645,-1350,-1606,1094,116927,0
5.781537771224976,-1193,-1650,1083,116921,0
5.821547031402588,-1051,-1479,914,116805,0
5.861530542373657,-860,-1301,782,116504,0
5.9015891551971436,-840,-1349,814,116537,0
5.940534591674805,-893,-1464,858,116766,0
5.980566024780273,-1078,-1615,751,116923,0
6.020538330078125,-1230,-1529,706,117025,0
6.060532808303833,-1386,-1332,682,117101,0
6.100561141967773,-1351,-1354,736,117115,0
6.140566825866699,-1290,-1426,742,117120,0
6.180556058883667,-1347,-1464,713,117137,0
6.220531225204468,-1438,-1411,683,117152,0
6.260564804077148,-1483,-1369,682,117190,0
6.300983667373657,-1485,-1372,702,117176,0
6.340675115585327,-1480,-1436,715,117207,0
6.380588054656982,-1403,-1457,672,117245,0
6.420687913894653,-1375,-1476,620,117258,0
6.459532260894775,-1304,-1485,610,117121,0
6.499565839767456,-1294,-1427,628,116988,0
6.539610862731934,-1234,-1403,675,117039,0
6.579655408859253,-1195,-1401,654,117111,0
6.619534969329834,-1183,-1457,594,117126,0
6.659552574157715,-1255,-1514,583,117136,0
6.699726104736328,-1344,-1463,626,117114,0
6.7396838665008545,-1355,-1454,623,117069,0
6.779803037643433,-1337,-1477,647,117014,0
6.819593191146851,-1327,-1466,628,117042,0
6.859555244445801,-1333,-1431,635,117072,0
6.89875864982605,-1319,-1418,663,117111,0
6.9385621547698975,-1318,-1410,675,117119,0
6.997053146362305,-1318,-1398,700,117132,0
7.024922847747803,-1268,-1416,690,117148,0
7.05854868888855,-1267,-1419,709,117113,0
7.098957061767578,-1304,-1447,752,116980,0
7.138578414916992,-1317,-1489,718,116970,0
7.178560972213745,-1298,-1451,660,117040,0
7.218498468399048,-1251,-1383,703,117060,0
7.258586168289185,-1126,-1378,668,117086,0
7.298584938049316,-1020,-1423,595,117115,0
7.338565826416016,-944,-1476,584,117124,0
7.377564907073975,-1072,-1455,625,117117,0
7.417550325393677,-1245,-1444,747,117127,0
7.457594394683838,-1395,-1457,723,117175,0
7.49753999710083,-1356,-1453,692,117232,0
7.537805795669556,-1295,-1443,840,117250,0
7.577581167221069,-1362,-1611,972,117282,0
7.6175477504730225,-1579,-1602,907,117269,0
7.657591104507446,-1590,-1584,634,117185,0
7.697526454925537,-1532,-1462,469,117011,0
7.73758602142334,-1236,-1490,441,116989,0
7.777660131454468,-1225,-1529,470,117031,0
7.81758713722229,-1180,-1528,628,117093,0
7.856525421142578,-1143,-1412,665,117132,0
7.896533727645874,-1189,-1325,710,117159,0
7.936609268188477,-1167,-1405,826,117169,0
7.976636171340942,-1171,-1481,832,117175,0
8.016792297363281,-1256,-1505,809,117198,0
8.056527614593506,-1502,-1339,763,117259,0
8.096555948257446,-1583,-1149,895,117241,0
8.136626958847046,-1450,-1188,1027,117252,0
8.17687439918518,-1333,-1327,901,117233,0
8.216592073440552,-1289,-1343,1062,117236,0
8.256596088409424,-1210,-1326,1060,117255,0
8.29657244682312,-1276,-1209,920,117159,0
8.33669376373291,-1208,-1160,1146,117021,0
8.375758647918701,-1163,-1164,1120,117045,0
8.415600299835205,-1174,-1170,1074,117106,0
8.455627679824829,-1221,-1216,1124,117164,0
8.495548725128174,-1298,-1171,1125,117207,0
8.535722255706787,-1367,-1109,1117,117206,0
8.575617551803589,-1404,-1018,1088,117192,0
8.61571741104126,-1397,-989,1093,117182,0
8.655559301376343,-1525,-952,1027,117202,0
8.695586919784546,-1628,-872,1046,117181,0
8.735780477523804,-1641,-758,990,117189,0
8.77554726600647,-1651,-668,950,117205,0
8.815601348876953,-1747,-617,1093,117235,0
8.854609966278076,-1817,-664,1297,117260,0
8.894586563110352,-1767,-651,1221,117291,0
8.9346923828125,-1594,-690,1202,117192,0
8.974603176116943,-1582,-734,1280,117147,0
9.014600992202759,-1605,-684,1254,117196,0
9.05467438697815,-1500,-606,1138,117284,0
9.09457015991211,-1542,-556,1225,117328,0
9.135283946990967,-1738,-447,1465,117368,0
9.174566745758057,-1637,-448,1394,117327,0
9.214563846588135,-1449,-456,1359,117299,0
9.254558563232422,-1505,-424,1358,117273,0
9.294561386108398,-1477,-425,1294,117289,0
9.333767175674438,-1394,-397,1195,117305,0
9.373540163040161,-1322,-355,1133,117327,0
9.413712978363037,-1481,-289,1165,117322,0
9.45358157157898,-1473,-225,1201,117338,0
9.493560791015625,-1368,-180,1184,117359,0
9.53355360031128,-1326,-134,1111,117323,0
9.57355260848999,-1226,-112,1030,117204,0
9.61361575126648,-1164,-132,1062,117255,0
9.653587818145752,-1320,-177,1202,117302,0
9.693578243255615,-1517,-193,1224,117288,0
9.733726263046265,-1309,-208,1147,117267,0
9.77370548248291,-1205,-254,1155,117241,0
9.813604354858398,-1377,-251,1255,117237,0
9.852871179580688,-1155,-363,1066,117244,0
9.89260458946228,-1415,-418,1250,117254,0
9.932567358016968,-1700,-429,1289,117263,0
9.97259259223938,-1756,-473,1249,117295,0
10.012582778930664,-1698,-459,1289,117271,0
10.052553176879883,-1510,-554,1294,117276,0
10.092559099197388,-1527,-598,1453,117261,0
10.132556915283203,-1530,-676,1392,117125,0
10.17260217666626,-1528,-685,1364,116933,0
10.212555885314941,-1554,-698,1271,116934,0
10.252618551254272,-1557,-828,1326,116953,0
10.29257583618164,-1519,-890,1271,117005,0
10.331573724746704,-1414,-976,1178,117030,0
10.371562242507935,-1365,-1021,1066,116987,0
10.411586999893188,-1531,-1028,1212,116976,0
10.451586723327637,-1556,-1151,1343,116994,0
10.491551876068115,-1507,-1138,1342,117001,0
10.531563758850098,-1432,-1145,1167,117020,0
10.571622133255005,-1359,-1080,1065,117000,0
10.611655235290527,-1401,-1026,1205,117020,0
10.651633262634277,-1333,-1181,1339,117007,0
10.6915864944458,-1368,-1162,1320,116985,0
10.731679916381836,-1264,-1191,1044,116816,0
10.772063255310059,-1261,-1135,921,116773,0
10.811561584472656,-1310,-997,931,116865,0
10.850728034973145,-1329,-944,1031,116965,0
10.890721321105957,-1334,-913,1168,117031,0
10.930572986602783,-1322,-942,1162,117069,0
10.970832347869873,-1303,-866,1086,117060,0
11.0106840133667,-1359,-810,1007,117048,0
11.05061411857605,-1454,-833,1033,117030,0
11.090567111968994,-1508,-943,1159,117038,0
11.130592823028564,-1431,-982,1165,117010,0
11.170705080032349,-1349,-1063,1233,116988,0
11.2105712890625,-1345,-973,1233,116984,0
11.250577926635742,-1303,-994,1116,116926,0
11.290637016296387,-1458,-990,1089,116816,0
11.33056378364563,-1506,-987,989,116722,0
11.369846820831299,-1571,-995,922,116731,0
11.409571170806885,-1474,-1164,827,116754,0
11.449592113494873,-1551,-1112,946,116787,0
11.489598512649536,-1635,-1000,1172,116817,0
11.52974557876587,-1553,-968,1108,116833,0
11.569659948348999,-1385,-927,1051,116832,0
11.609628200531006,-1392,-1004,1054,116832,0
11.649592876434326,-1478,-1090,1044,116843,0
11.689603567123413,-1657,-1186,1150,116836,0
11.729581356048584,-1626,-1205,1096,116865,0
11.769972562789917,-1460,-1189,1063,116944,0
11.809601068496704,-1365,-1216,1172,117068,0
11.848618507385254,-1451,-960,1081,117071,0
11.888600826263428,-1294,-921,1044,116926,0
11.928610801696777,-1295,-922,1112,116942,0
11.968911170959473,-1323,-934,1133,117040,0
12.008556365966797,-1464,-897,1078,117079,0
12.048574924468994,-1520,-920,1217,117037,0
12.088577032089233,-1623,-892,1224,116935,0
12.128561019897461,-1646,-890,1161,116866,0
12.168622016906738,-1535,-896,1116,116809,0
12.20863151550293,-1576,-790,1154,116782,0
12.24858832359314,-1681,-757,1159,116768,0
12.288610219955444,-1769,-729,1155,116806,0
12.32857370376587,-1771,-734,1116,116836,0
12.36771011352539,-1762,-864,1061,116778,0
12.407640933990479,-1632,-800,1064,116728,0
12.447579145431519,-1513,-701,1127,116611,0
12.48759913444519,-1680,-669,1175,116533,0
12.527568817138672,-1469,-485,1109,116701,0
12.567658185958862,-1432,-396,1070,116815,0
12.607654571533203,-1528,-215,1044,116756,0
12.647658348083496,-1458,-309,901,116688,0
12.687580585479736,-1579,-219,809,116760,0
12.727581262588501,-1595,-178,781,116907,0
12.767701864242554,-1839,-132,824,117022,0
12.807907104492188,-1834,-141,703,117049,0
12.846583127975464,-1920,-64,820,117063,0
12.886614799499512,-1900,-67,821,117041,0
12.926578283309937,-1778,-69,797,116977,0
12.966652631759644,-1790,15,735,117002,0
13.006629228591919,-1709,39,715,117046,0
13.046556234359741,-1627,-9,726,117044,0
13.086558818817139,-1844,-32,795,117003,0
13.126562595367432,-2161,-34,918,116951,0
13.16654896736145,-2152,31,607,116833,0
13.207380294799805,-1761,196,755,116757,0
13.246567487716675,-1628,242,842,116717,0
13.286923885345459,-1769,269,946,116646,0
13.326589107513428,-2004,286,726,116615,0
13.365611791610718,-1895,216,766,116758,0
13.406398057937622,-2273,306,697,116967,0
13.44563102722168,-1943,373,680,117102,0
13.485615491867065,-1765,378,569,117228,0
13.525574445724487,-1842,382,590,117228,0
13.565622329711914,-1837,404,779,117218,0
13.605743169784546,-1746,340,847,117304,0
13.645722150802612,-1964,315,975,117299,0
13.685592412948608,-1899,259,898,117171,0
13.72558045387268,-1771,252,1055,117067,0
13.765594482421875,-1776,181,1014,117083,0
13.805853605270386,-1638,188,1071,117068,0
13.844599485397339,-1541,200,1151,117045,0
13.884618997573853,-1578,236,1086,117062,0
13.924583435058594,-1631,263,1008,117123,0
13.964609622955322,-1681,271,1046,117177,0
14.005096197128296,-1680,254,1065,117214,0
14.044579267501831,-1741,222,1018,117291,0
14.084636449813843,-1723,209,1170,117304,0
14.124667167663574,-1652,214,1051,117319,0
14.164565324783325,-1650,253,988,117284,0
14.20465087890625,-1687,318,1022,117306,0
14.244585514068604,-1710,361,953,117286,0
14.284607172012329,-1788,412,968,117260,0
14.324641466140747,-1826,415,1047,117157,0
14.363678455352783,-1750,383,982,117174,0
14.403755903244019,-1730,362,1051,117264,0
14.443597555160522,-1654,348,1063,117313,0
14.48360538482666,-1645,377,1063,117318,0
14.523615837097168,-1627,384,1026,117329,0
14.563676834106445,-1695,397,1041,117326,0
14.603601455688477,-1666,405,1089,117302,0
14.643636703491211,-1728,383,1067,117276,0
14.683621168136597,-1714,386,1037,117216,0
14.723750114440918,-1671,381,1015,117175,0
14.763664722442627,-1624,415,1048,117151,0
14.803615093231201,-1610,376,1050,117149,0
14.842651128768921,-1577,383,981,117153,0
14.882661581039429,-1646,413,969,117127,0
14.922646760940552,-1766,427,1076,117017,0
14.962603092193604,-1857,405,1108,117065,0
15.002647638320923,-1813,373,1100,117121,1
15.042845010757446,-1800,277,1119,117162,1
15.082881450653076,-1697,156,1163,117257,1
15.122637033462524,-1816,-552,1415,117335,1
15.162651777267456,-1999,-560,921,117398,1
15.202646493911743,-2311,-32,821,117417,1
15.242889642715454,-1651,1473,991,117409,1
15.282668828964233,-2475,4127,1779,117463,1
15.322665691375732,-4070,5553,3974,117544,1
15.361677646636963,-2972,3886,2326,117643,1
15.40160083770752,-469,966,67,117785,1
15.442238569259644,2027,-2132,201,117798,1
15.481611490249634,896,-6331,-617,117849,1
15.521674156188965,-3916,-7518,989,117819,1
15.561644792556763,348,-5621,2540,117783,1
15.601657629013062,-355,-3501,1020,117692,1
15.641643524169922,-629,1195,1599,117655,1
15.681670665740967,-4694,6994,3033,117825,1
15.721622467041016,-7633,9791,7903,117990,1
15.761669158935547,-3980,4403,5718,118002,1
15.801613092422485,-1473,1831,547,117964,1
15.841617822647095,1001,-1095,51,117846,1
15.881794929504395,2448,-7288,-1488,117865,1
15.92065954208374,-4617,-8906,1371,117856,1
15.960750102996826,-119,-5749,3399,117703,1
16.000675201416016,-171,-4294,-31,117688,1
16.04064965248108,-479,-366,456,117756,1
16.08062767982483,-2682,5420,2990,117821,1
16.12068462371826,-4858,10592,7740,117967,1
16.160900354385376,-2755,6747,8127,118014,1
16.200663566589355,-1598,2801,2952,118021,1
16.240639209747314,512,-289,627,117912,1
16.28071928024292,1537,-5789,-1471,117881,1
16.32063865661621,-5159,-9984,-149,117935,1
16.360656261444092,-954,-6173,4022,117675,1
16.399664163589478,1251,-4933,875,117633,1
16.440038919448853,298,-415,830,117636,1
16.47963786125183,-1568,6128,1984,117654,1
16.51965618133545,-2614,11092,5599,117845,1
16.559679746627808,-1388,6976,7593,117989,1
16.59963846206665,-1185,2790,2617,118121,1
16.639667987823486,-312,-1051,-92,117986,1
16.67963671684265,1560,-6598,-720,118045,1
16.71967577934265,-5173,-8857,139,117977,1
16.759620666503906,586,-6287,3214,117899,1
16.799615621566772,282,-4641,1131,117953,1
16.839617252349854,506,1780,377,117833,1
16.87862253189087,-2458,8939,2359,117765,1
16.961792945861816,-3448,11380,8740,117811,1
16.96355390548706,-133,5176,7052,118110,1
16.9986674785614,-1853,450,-901,118318,1
17.038647651672363,809,-5637,1029,118385,1
17.07866668701172,-5922,-10698,-204,118433,1
17.118712186813354,979,-7574,3067,118175,1
17.15867853164673,2097,-4779,357,118152,1
17.198606491088867,683,509,-216,118123,1
17.238704204559326,-3154,9859,1281,118128,1
17.27905511856079,-3532,12830,10456,118081,1
17.31866455078125,887,5839,7784,118333,1
17.358712911605835,16,563,-1150,118431,1
17.397663593292236,1369,-10334,-116,118586,1
17.43768572807312,-9422,-11414,224,118456,1
17.478697061538696,2877,-8416,2823,118190,1
17.51767063140869,1152,-2832,311,118184,1
17.557639837265015,-1153,6144,-74,118165,1
17.597731113433838,-3764,15049,4634,118228,1
17.637677907943726,287,8524,10350,118358,1
17.6779727935791,-1721,2454,3111,118412,1
17.71764874458313,769,-5164,1669,118400,1
17.7576801776886,-5359,-14843,-2150,118527,1
17.797659158706665,-130,-8528,5871,117978,1
17.837650299072266,2883,-6092,171,118004,1
17.87763738632202,1578,2152,-521,117985,1
17.91687297821045,-564,10449,3387,118076,1
17.956688404083252,-1126,14007,7009,118153,1
17.99662947654724,1494,5478,4207,118436,1
18.036670923233032,1118,-464,1526,118649,1
18.07678508758545,-1645,-12089,-1778,119162,1
18.116646766662598,-8244,-9280,3544,119005,1
18.15667223930359,2383,-8762,98,118973,1
18.196646213531494,1436,-1672,413,118681,1
18.236638069152832,-200,9419,1487,118395,1
18.276736974716187,-655,14825,6294,118294,1
18.31672978401184,392,5847,10132,118649,1
18.35662031173706,-92,663,1022,118611,1
18.39568519592285,-147,-9549,2,118985,1
18.435728549957275,-10417,-12568,-1261,118813,1
18.475669384002686,2542,-8916,1906,118413,1
18.51576256752014,1663,-2510,369,118304,1
18.555689334869385,-839,8902,2433,118232,1
18.5956711769104,-490,14488,5446,118238,1
18.63568663597107,1331,7280,7453,118463,1
18.67562198638916,437,2561,1124,118631,1
18.71568489074707,2552,-5985,612,118684,1
18.755824089050293,-9139,-14741,-258,118797,1
18.79570746421814,2204,-10225,3369,118327,1
18.835646152496338,2254,-5307,258,118256,1
18.875674724578857,250,6117,-318,118152,1
18.914682865142822,1820,14885,3240,118206,1
18.95481848716736,-292,10868,9312,118528,1
18.99468445777893,-1909,3870,2953,118803,1
19.034655332565308,1085,-3201,2929,118995,1
19.07472252845764,-6435,-14914,-1403,119197,1
19.11465620994568,-760,-9764,3892,118704,1
19.15464687347412,3704,-6102,391,118506,1
19.19464921951294,1350,2458,47,118342,1
19.234696865081787,-542,11041,4335,118150,1
19.27478814125061,164,12912,9336,118167,1
19.31486225128174,696,4461,2551,118445,1
19.35464882850647,857,-741,883,118504,1
19.393739461898804,356,-10753,-960,118801,1
19.433660984039307,-9958,-9042,238,118628,1
19.47373104095459,1326,-6852,2544,118414,1
19.513787746429443,973,-1118,435,118301,1
19.55375576019287,-1554,7724,1073,118225,1
19.59366774559021,588,14698,1796,118142,1
19.633647680282593,3291,7104,6030,118247,1
19.673654317855835,2016,2249,897,118393,1
19.713881731033325,680,-10205,372,118692,1
19.754539251327515,-12012,-11819,1835,118698,1
19.79377841949463,1882,-9108,2286,118259,1
19.833688735961914,1654,-1165,602,118158,1
19.873701572418213,-770,9090,1510,118124,1
19.91308331489563,392,14670,2314,118083,1
19.952708959579468,2543,6831,5548,118262,1
19.992661237716675,1156,863,-450,118484,1
20.03274130821228,-1473,-12619,-1287,118792,1
20.072691202163696,-7345,-9208,4235,118492,1
20.1126549243927,2206,-6414,377,118247,1
20.153627157211304,1540,810,391,118156,1
20.192683696746826,-2065,9289,2291,118186,1
20.232667207717896,-503,12823,6523,118146,1
20.272666692733765,1202,5925,4400,118291,1
20.31269073486328,738,1465,853,118367,1
20.35280752182007,1068,-11112,1260,118640,1
20.391710996627808,-9529,-10786,1976,118534,1
20.43170738220215,2392,-8506,1608,118342,1
20.471677780151367,540,-1043,-164,118332,1
20.51172399520874,-1031,9004,2656,118252,1
20.5517737865448,2274,14867,3160,118230,1
20.59169030189514,1726,6944,2818,118338,1
20.631649494171143,1433,1185,938,118281,1
20.671671867370605,1649,-9186,378,118459,1
20.711739778518677,-10410,-11738,2775,118419,1
20.751678705215454,2285,-7536,1581,118024,1
20.791679859161377,849,577,743,117926,1
20.831696033477783,-1329,9336,1428,117854,1
20.871861934661865,2301,13854,1652,117890,1
20.91081404685974,2020,6773,2578,118004,1
20.950711011886597,1975,217,-499,118075,1
20.99071717262268,-2741,-12643,-729,118426,1
21.03096342086792,-7342,-8995,8120,118117,1
21.070706129074097,2223,-7803,333,117998,1
21.110702753067017,1523,2171,-634,118021,1
21.150755405426025,-390,11583,1177,118010,1
21.19069504737854,1347,13494,4990,118013,1
21.23065447807312,1466,5305,1663,118221,1
21.270708084106445,1771,-716,460,118337,1
21.310731649398804,-1563,-11566,-1007,118643,1
21.351130485534668,-9773,-8079,5229,118457,1
21.389697790145874,819,-8683,662,118250,1
21.42969799041748,547,-1455,-567,118159,1
21.46965503692627,429,8579,21,118074,1
21.509723901748657,4239,16522,2388,118122,1
21.549845695495605,1595,7697,3566,118312,1
21.58969807624817,2620,1819,1759,118436,1
21.629870653152466,-1629,-12369,-286,118851,1
21.6697039604187,-13108,-10630,6324,118473,1
21.709689378738403,2294,-7399,-308,118198,1
21.749714851379395,3325,216,356,118086,1
21.789660215377808,1021,10815,710,118007,1
21.82973337173462,2419,13325,3280,117934,1
21.86967921257019,1438,6347,4057,118109,1
21.908856630325317,3284,930,-614,118315,1
21.949658632278442,781,-12498,-931,118889,1
21.98876166343689,-13835,-8680,7653,118497,1
22.02869415283203,2805,-8729,-379,118366,1
22.068713903427124,961,-1341,-421,118254,1
22.10866379737854,490,8170,882,118105,1
22.148749113082886,6220,14897,357,118003,1
22.1886625289917,2346,8291,4743,118134,1
22.22876739501953,2378,1198,-951,118192,1
22.26869821548462,-753,-14678,-197,118770,1
22.308731079101562,-13214,-8788,8882,118434,1
22.348668336868286,755,-8382,-328,118297,1
22.388663053512573,1927,285,-362,118200,1
22.427682638168335,2442,11446,-730,117954,1
22.46774649620056,6770,13067,3443,117953,1
22.507702589035034,3832,5658,4803,118615,1
22.547698497772217,-513,-5864,733,119479,1
22.587749481201172,-13832,-12955,1462,119622,1
22.627748489379883,-516,-8700,3625,118887,1
22.66768217086792,2794,-4494,259,118471,1
22.707682847976685,1555,5327,-67,118187,1
22.747697591781616,4286,10647,1513,117862,1
22.78770875930786,3418,9177,6229,117891,1
22.82781744003296,2355,3242,108,118092,1
22.867769956588745,2265,-4959,-1348,118420,1
22.907782793045044,-8378,-13274,770,118840,1
22.946748971939087,-2695,-6922,6141,118375,1
22.986711978912354,1242,-4465,1326,118304,1
23.026662588119507,638,4335,83,118210,1
23.066745281219482,3296,11007,368,118047,1
23.106738805770874,2975,10022,5999,118136,1
23.146735429763794,2237,3856,2173,118443,1
23.186734437942505,-371,-6298,648,118839,1
23.226768732070923,-11172,-13112,2284,118928,1
23.266705989837646,1540,-9200,2552,118494,1
23.306764125823975,2411,-2307,-234,118380,1
23.3467538356781,-1625,8471,627,118347,1
23.387024641036987,-475,14391,3019,118192,1
23.42669153213501,4203,7528,7200,118222,1
23.465681791305542,2287,1901,-450,118430,1
23.50576663017273,-1196,-12648,-2736,118808,1
23.545787572860718,-10826,-11878,5581,118534,1
23.585781574249268,1163,-9205,624,118348,1
23.625731229782104,1953,879,1303,118279,1
23.66575813293457,-537,11329,50,118191,1
23.705758333206177,3956,14113,3743,118151,1
23.745715618133545,3805,5706,2972,118273,1
23.786573886871338,2237,-4682,511,118595,1
23.825862646102905,-13435,-17313,1224,118812,1
23.865854501724243,2700,-10874,3602,118272,1
23.905719757080078,3175,-3141,516,118226,1
23.945703268051147,-649,10082,-469,118194,1
23.98599123954773,6148,15985,3876,118260,1
24.02468752861023,3721,8420,5482,118708,1
24.064724922180176,2439,-3573,-689,119145,1
24.10474157333374,-15146,-17829,1378,119319,1
24.14476728439331,1008,-11445,3131,118864,1
24.18474769592285,3023,-5466,523,118772,1
24.224714040756226,-937,10856,-247,118657,1
24.26477861404419,5518,17972,-854,118467,1
24.30470561981201,5338,8374,8684,118757,1
24.344778776168823,2428,-2778,-1442,118959,1
24.384811401367188,-14063,-18938,-756,119224,1
24.424707412719727,642,-11136,6032,118612,1
24.464714288711548,4258,-5209,541,118530,1
24.504679441452026,342,6980,68,118505,1
24.543712615966797,3279,17655,-1197,118377,1
24.583834409713745,5337,8735,6736,118659,1
24.623882293701172,2149,-26,-939,118972,1
24.663767337799072,-7494,-15597,-3575,119306,1
24.703756093978882,-2929,-9491,8241,118809,1
24.743802785873413,3835,-6035,-793,118522,1
24.783881664276123,649,7475,-71,118394,1
24.823976039886475,3038,14462,1524,118161,1
24.864243268966675,3897,8220,10135,118207,1
24.903719186782837,2016,-1694,-69,118433,1
24.943776845932007,-12429,-14117,192,118759,1
24.983731746673584,1568,-9914,4209,118352,1
25.022753715515137,2209,-4563,-547,118333,1
25.062745332717896,589,5382,245,118312,1
25.102734565734863,-1473,13064,1653,118233,1
25.142719268798828,3858,8424,9642,118369,1
25.182724714279175,297,3487,788,118314,1
25.22276544570923,1062,-3186,-348,118312,1
25.26275110244751,-4889,-12468,325,118522,1
25.302799224853516,-4913,-6652,4479,118336,1
25.34275460243225,740,-7464,-188,118230,1
25.382704496383667,1808,1725,162,118196,1
25.42283320426941,-584,10613,1557,118107,1
25.46272349357605,3020,12064,7483,118026,1
25.501755475997925,2434,5189,3875,118134,1
25.541828870773315,2531,-1698,-1426,118250,1
25.581754446029663,-5077,-13043,-1465,118539,1
25.621782541275024,-7355,-8688,6247,118249,1
25.661741495132446,2039,-6503,221,118170,1
25.70172429084778,2569,1754,176,118083,1
25.741714239120483,400,9500,3169,117956,1
25.781728744506836,2055,11652,5758,117951,1
25.822041034698486,1277,5532,6072,118169,1
25.86168885231018,404,-6,1457,118357,1
25.90183186531067,-4620,-11582,-1267,118551,1
25.9417986869812,-4921,-10390,3440,118297,1
25.980741024017334,2983,-5920,1503,118151,1
26.021106719970703,699,2340,31,118166,1
26.060729026794434,-4903,10913,2183,118098,1
26.10073161125183,2481,10527,9031,117973,1
26.140746355056763,3080,5475,4218,118247,1
26.180808305740356,2809,-2009,-1913,118521,1
26.22143268585205,-6027,-17051,-2516,118792,1
26.26076102256775,-2454,-8270,10977,118294,1
26.3007493019104,4424,-8243,-1844,118230,1
26.340776443481445,1955,3121,-1571,118099,1
26.380746841430664,517,12611,-591,117949,1
26.420734643936157,2459,12206,9527,117947,1
26.460759162902832,2053,4816,4147,118428,1
26.500292778015137,-1805,-5338,-53,118756,1
26.53974962234497,-7401,-16149,1695,118764,1
26.579758644104004,-1788,-8974,3443,118380,1
26.61974859237671,1267,-8026,175,118253,1
26.65972399711609,2769,4273,-677,118064,1
26.699832677841187,7850,12221,-1218,117822,1
26.739820957183838,6139,11511,9106,117908,1
26.779738426208496,3261,1459,-771,118127,1
26.81977391242981,-2739,-13890,-293,118867,1
26.85979914665222,-12934,-10794,10018,118653,1
26.946823358535767,1442,-8846,-515,118457,1
26.94771933555603,1884,117,-231,118299,1
26.978798866271973,3412,10536,-931,118019,1
27.019381999969482,5437,12830,3296,118010,1
27.058786392211914,4066,4203,2936,118366,1
27.098820686340332,-1154,-10137,52,119061,1
27.138944387435913,-13894,-11512,9878,118836,1
27.178792476654053,1629,-10016,-650,118431,1
27.219374895095825,1506,-1449,-1331,118210,1
27.25873112678528,-2315,9373,658,117977,1
27.298858880996704,9103,13081,3855,117809,1
27.338974237442017,3949,7385,4769,117899,1
27.378770351409912,3766,-1413,-1009,118206,1
27.41874408721924,-7315,-15762,723,119054,1
27.457765340805054,-4211,-8846,6716,118321,1
27.49778413772583,2361,-4716,2172,118164,1
27.53773021697998,929,4670,-1424,118112,1
27.57779622077942,4743,12468,-2136,117966,1
27.61774969100952,2410,9809,7416,118162,1
27.657733917236328,2561,1491,2241,118811,1
27.697876691818237,-5413,-13603,-1012,119276,1
27.737866163253784,-7361,-9734,5774,118714,1
27.777795553207397,2489,-8762,-179,118451,1
27.81800127029419,1406,1378,-24,118225,1
27.85820746421814,272,9186,710,117993,1
27.897785663604736,482,12590,2826,117998,1
27.936769485473633,2101,5524,2865,118015,1
27.976799488067627,2253,-1585,1483,118176,1
28.016758918762207,-5002,-12514,163,118560,1
28.057381629943848,-4176,-7369,4176,118263,1
28.096736431121826,195,-4765,1017,118145,1
28.136698722839355,-7,3046,321,118069,1
28.176776885986328,-1651,9686,1310,118012,1
28.216739892959595,-337,10743,6377,117951,1
28.257060766220093,1934,4856,1837,118072,1
28.296764612197876,1216,-2155,-699,118472,1
28.336817979812622,-5685,-12346,-490,118730,1
28.376784086227417,-1944,-7203,5611,118442,1
28.415720462799072,280,-3759,125,118392,1
28.45619249343872,-786,4081,-879,118287,1
28.495802640914917,-2154,10918,1119,118113,1
28.535750150680542,2661,11391,9842,118146,1
28.576594352722168,1053,3607,-6,118483,1
28.615800857543945,377,-5467,-2203,118655,1
28.656009912490845,-10743,-11280,3679,118748,1
28.695843935012817,584,-9051,3501,118341,1
28.735840559005737,2811,-5361,-1113,118336,1
28.775784492492676,149,3911,-2627,118231,1
28.815739154815674,17,9578,-661,118093,1
28.855802536010742,2050,11217,7874,118038,1
28.894791841506958,1448,4678,3072,118131,1
28.934743881225586,-19,-3467,-762,118326,1
28.97479224205017,-5499,-11235,3152,118447,1
29.01474690437317,-4434,-4944,6536,118318,1
29.054851293563843,2625,-9263,-1872,118440,1
29.094773530960083,72,-1282,-2887,118375,1
29.135321855545044,-1067,6477,-1549,118223,1
29.174761533737183,287,9737,3832,118048,1
29.214760065078735,1596,7787,12199,118022,1
29.25476050376892,-1685,3380,1048,118127,1
29.294827461242676,75,-406,-818,118150,1
29.33478546142578,-224,-9894,594,118309,1
29.373796463012695,-6056,-5579,4558,118329,1
29.41381001472473,1504,-8731,2575,118365,1
29.453821182250977,338,-3166,-2145,118360,1
29.493841409683228,-255,5636,187,118221,1
29.533835649490356,1118,12269,2564,118064,1
29.573904991149902,2516,9239,9540,118191,1
29.613836765289307,288,3255,1390,118413,1
29.65375518798828,1040,-3096,-184,118606,1
29.693807363510132,-4558,-13986,527,118836,1
29.733880281448364,-2487,-6331,7906,118334,1
29.773830890655518,2510,-7298,-564,118460,1
29.81388759613037,313,1763,-512,118368,1
29.852808952331543,-55,9042,185,118227,1
29.89298439025879,3596,10854,6048,118272,1
29.932886600494385,668,4831,3907,118408,1
29.97276782989502,232,1094,-450,118478,1
30.012781858444214,-386,-12531,640,118624,1
30.05278706550598,-9606,-6547,5817,118524,1
30.09281826019287,1425,-8022,-34,118307,1
30.13282823562622,714,177,-207,118181,1
30.17286729812622,-307,5566,512,118007,1
30.21280789375305,2876,11348,3927,117941,1
30.252765417099,1801,7286,3075,118043,1
30.293042182922363,1593,3160,-328,118221,1
30.331892490386963,1429,-5780,-245,118437,1
30.37185049057007,-10756,-12497,4711,118536,1
30.41184973716736,-331,-7516,5579,118211,1
30.45178508758545,1938,-3694,-571,118245,1
30.49211287498474,831,2739,-1842,118117,1
30.531845331192017,2370,9281,-607,117925,1
30.571794033050537,1858,9503,4475,117955,1
30.61181116104126,2368,4032,513,118017,1
30.651793956756592,744,-5681,1521,118388,1
30.691863536834717,-12979,-11077,8523,118402,1
30.731977224349976,2035,-9762,77,117931,1
30.771820545196533,1450,-1972,-1203,118001,1
30.810796976089478,1913,6268,-1383,117937,1
30.850798845291138,5307,11186,-465,117860,1
30.891107082366943,3445,7260,3984,117968,1
30.930815935134888,2314,-553,-1198,118252,1
30.970909595489502,-6403,-14977,-132,118768,1
31.01081347465515,-3682,-6125,10169,118005,1
31.05079984664917,1923,-5871,-718,118033,1
31.090826272964478,832,1518,-658,117980,1
31.130857944488525,285,8816,6,117829,1
31.170822143554688,4441,10289,3980,117784,1
31.210779666900635,2393,5172,3414,117877,1
31.25078272819519,1541,-3938,938,118324,1
31.28984761238098,-13519,-14963,2264,118648,1
31.32983160018921,2613,-9217,5456,118029,1
31.369843006134033,1650,-5268,-3536,118089,1
31.409809827804565,1633,4245,350,117953,1
31.44981360435486,799,11124,3604,117892,1
31.489825010299683,5361,8876,7656,117887,1
31.529814958572388,1328,3329,1340,117944,1
31.569849252700806,1913,-4329,-966,118118,1
31.60984969139099,-8501,-15157,-602,118316,1
31.64978861808777,913,-6267,8764,117785,1
31.689830780029297,2269,-6920,-1130,118024,1
31.72985339164734,-31,2292,-1229,117944,1
31.76886248588562,-1604,9857,1462,117819,1
31.808826684951782,2742,10592,6050,117739,1
31.84876537322998,3274,5674,6349,117871,1
31.88893985748291,1780,-3172,-1305,118123,1
31.92880892753601,-9976,-13750,1375,118490,1
31.9687979221344,-331,-8514,7371,118031,1
32.00935244560242,3298,-8230,-2452,118038,1
32.048845529556274,1149,2353,-1888,117972,1
32.088788986206055,31,11397,947,117821,1
32.12895488739014,6262,11295,10162,117826,1
32.168888092041016,1416,3671,1896,118242,1
32.208786964416504,-703,-4916,-881,118674,1
32.24786591529846,-11338,-11371,3386,118700,1
32.28779935836792,-421,-9244,5120,118355,1
32.32786512374878,2046,-7105,-508,118366,1
32.367799520492554,1381,3956,-1608,118127,1
32.407851457595825,4580,11442,-1374,117864,1
32.447795152664185,4982,9914,8133,117882,1
32.487772941589355,2975,2954,1613,118091,1
32.528292417526245,-858,-8746,-642,118380,1
32.56786513328552,-12021,-10697,2646,118292,1
32.60778498649597,69,-9934,4658,117915,1
32.64789843559265,2182,-5413,-1263,117944,1
32.68783450126648,1680,5280,-1602,117883,1
32.727012395858765,3229,13924,-2391,117816,1
32.76679062843323,4957,9430,8220,117952,1
32.806845903396606,1181,2543,748,118368,1
32.84681677818298,-2532,-11734,3456,119098,1
32.886849880218506,-12462,-11559,11643,118426,1
32.926971673965454,6371,-11205,-4601,118157,1
32.96682262420654,3863,17,-2569,118031,1
33.00681233406067,-3102,12139,-212,117844,1
33.04678392410278,3917,11875,9547,117684,1
33.086798906326294,1857,4590,3232,117874,1
33.12683081626892,1009,-1739,-427,118241,1
33.166847944259644,-6813,-14217,69,118744,1
33.205915689468384,-2491,-6976,9236,117965,1
33.24584341049194,3479,-7926,-1855,117799,1
33.28578805923462,2290,1189,-705,117737,1
33.32624268531799,1586,9401,-2009,117666,1
33.36592507362366,5055,11068,2164,117572,1
33.40581011772156,4361,4349,4924,117836,1
33.445883989334106,-1707,-8342,1830,118737,1
33.485838413238525,-16858,-7755,9756,118510,1
33.52582240104675,1308,-10337,-1337,118011,1
33.56639575958252,2967,-4820,-1596,117865,1
33.60592436790466,2503,3685,-2217,117789,1
33.64485764503479,1582,13461,-1466,117643,1
33.68478846549988,5292,8889,9046,117666,1
33.72479510307312,2231,1625,1277,118060,1
33.76483702659607,-2864,-12264,2711,118622,1
33.804845571517944,-13082,-8550,9772,118027,1
33.84484362602234,3477,-8922,-2660,117760,1
33.88486695289612,2209,-1274,-1386,117722,1
33.92481541633606,1007,6142,-1013,117727,1
33.964927673339844,2014,11237,2299,117606,1
34.00482201576233,3490,7390,4790,117685,1
34.04484176635742,870,1712,-1515,117913,1
34.08479356765747,-965,-10032,-242,118455,1
34.12413263320923,-9197,-8137,9701,118372,1
34.163841009140015,328,-11016,1986,117953,1
34.20382118225098,944,-5494,-2026,118002,1
34.24384546279907,1160,3277,-1576,117918,1
34.2838077545166,1774,12879,-2447,117592,1
34.32382321357727,7462,8439,7486,117427,1
34.36378264427185,2909,2721,4552,117883,1
34.403862714767456,-1411,-5422,-978,118326,1
34.44385838508606,-12124,-13418,3798,118401,1
34.483832120895386,-2036,-7535,9118,117896,1
34.52386021614075,3221,-8673,-4086,117913,1
34.56416368484497,3142,-1277,-2651,117830,1
34.60281443595886,2755,7156,-1948,117686,1
34.64279842376709,4803,12007,-24,117549,1
34.6828236579895,2548,7444,10349,117812,1
34.722792863845825,1586,-698,121,118249,1
34.76288604736328,-5249,-14159,676,118864,1
34.802913665771484,-9754,-6633,11795,118364,1
34.842848777770996,3600,-11975,-3623,117986,1
34.88282585144043,2426,-2006,-1558,117871,1
34.92282462120056,3158,6524,-1140,117724,1
34.963128328323364,7791,12910,-2685,117547,1
35.00292778015137,3936,7679,5773,117695,1
35.04282999038696,2319,-1174,-354,118167,1
35.08184504508972,-7824,-15188,3113,119002,1
35.121872425079346,-7559,-7548,12318,118182,1
35.162015199661255,4801,-9361,-3279,117948,1
35.20184540748596,2978,-1782,-2040,117975,1
35.2419593334198,2427,6705,-1030,117932,1
35.2818284034729,2437,11572,-494,117809,1
35.32180643081665,3964,7428,9094,117795,1
35.36224007606506,577,437,189,118135,1
35.40184235572815,-2132,-8773,4172,118485,1
35.44188213348389,-13014,-7049,5440,118445,1
35.48183584213257,3012,-12200,-1222,117899,1
35.521843910217285,2381,-4282,-76,117952,1
35.5611891746521,1089,2861,-1325,117899,1
35.60082721710205,2445,9683,-107,117801,1
35.640873670578,4853,10417,3809,117738,1
35.68079876899719,4948,4935,5041,117982,1
35.72134256362915,-435,-5430,1103,118586,1
35.76090931892395,-14003,-14497,505,118793,1
35.800902128219604,-2817,-8504,5819,118015,1
35.84091782569885,3463,-7095,-1225,117988,1
35.88086557388306,1283,664,-820,118026,1
35.92078256607056,1248,7055,99,117956,1
35.96083211898804,3953,11926,2659,117840,1
36.00082540512085,2752,6431,5634,118014,1
36.03985142707825,892,831,-2220,118451,1
36.079824686050415,-12,-9432,3214,118972,1
36.1198673248291,-16972,-8844,7736,118527,1
36.15984559059143,4602,-9469,-214,118085,1
36.19988656044006,1359,-3161,-1053,118142,1
36.23988127708435,2140,4247,-1137,118055,1
36.279842376708984,2184,9988,-2404,117888,1
36.31979250907898,2929,8811,4485,117815,1
36.35987734794617,3829,3157,1386,118078,1
36.39994764328003,-1851,-8986,1634,118609,1
36.43989276885986,-19164,-7790,6286,118613,1
36.47990584373474,1517,-11294,-653,117931,1
36.519867181777954,3161,-6242,767,118080,1
36.55886793136597,2924,489,-217,118083,1
36.59887623786926,2685,4267,382,118049,1
36.638850688934326,7578,10633,-1547,117988,1
36.69123840332031,3072,7967,5194,118159,1
36.71931600570679,2861,2205,-1379,118448,1
36.75888180732727,-946,-7611,4746,119294,1
36.79891562461853,-22669,-8202,9906,119272,1
36.83889603614807,4920,-12462,66,118424,1
36.87885141372681,4270,-4264,-522,118273,1
36.91894054412842,2344,3055,-908,118167,1
36.958881855010986,2814,8587,-2343,117983,1
36.999287128448486,2299,10272,4006,117953,1
37.037835121154785,2063,5333,2471,118044,1
37.077871799468994,1970,-3239,243,118375,1
37.117865324020386,-8662,-16362,5854,118885,1
37.15796875953674,-5295,-8013,4992,118151,1
37.19797420501709,2873,-6981,1416,117970,1
37.2378625869751,1803,-722,-373,118036,1
37.27786993980408,1702,4014,-560,117995,1
37.31784749031067,4471,9747,-2467,117839,1
37.35896158218384,4773,8467,2602,117794,1
37.39787316322327,2649,2226,2051,118097,1
37.437864542007446,-1042,-11876,2585,118712,1
37.47788739204407,-18344,-4484,7810,118870,1
37.517998456954956,-982,-8157,-441,118193,1
37.55690264701843,3332,-5915,541,118026,1
37.597057819366455,1672,-1288,-577,117971,1
37.63696312904358,1248,2839,-816,117917,1
37.677003383636475,6633,8441,1274,117717,1
37.716840744018555,6727,9309,5355,117778,1
37.7568736076355,3109,1952,-908,118099,1
37.79684400558472,75,-8272,3284,118612,1
37.83689475059509,-20122,-9443,8260,118759,1
37.876859188079834,4300,-10331,1416,118071,1
37.91683888435364,2847,-2360,1274,118080,1
37.956844091415405,2776,3118,-1299,118046,1
37.99684405326843,7445,8420,-3301,118055,1
38.03593468666077,4942,8399,2200,118267,1
38.07585573196411,1791,3527,901,118436,1
38.11588716506958,-754,-6926,3406,119037,1
38.15592432022095,-17331,-8077,11151,119138,1
38.195881605148315,1123,-10509,1892,118491,1
38.23587489128113,2739,-5241,-1067,118535,1
38.27583694458008,1213,901,3,118519,1
38.31590223312378,5818,5905,-1651,118220,1
38.35592007637024,11300,10188,-3812,118236,1
38.39585304260254,3012,4867,1555,118389,1
38.43583917617798,971,-3355,1075,118762,1
38.47613763809204,-10817,-14373,11285,119419,1
38.514880418777466,-4880,-9014,4995,118555,1
38.55483317375183,3627,-5583,-2021,118366,1
38.59495401382446,2575,-386,-1589,118336,1
38.63484787940979,747,2039,-269,118323,1
38.67494869232178,588,4768,-576,118236,1
38.714897871017456,2217,7918,-198,118197,1
38.75483059883118,2707,7181,986,118174,1
38.79486918449402,4181,690,-119,118438,1
38.83490586280823,-1903,-15922,6783,119016,1
38.87489128112793,-19592,-2410,8695,118673,1
38.914878129959106,1122,-7582,3260,118243,1
38.95488786697388,1775,-4592,130,118228,1
38.99575066566467,2370,2369,-1566,118160,1
39.03384518623352,8439,8510,-4238,117920,1
39.07389235496521,6889,10103,263,118009,1
39.11385703086853,951,455,-654,118454,1
39.15403151512146,-1629,-7967,10130,119243,1
39.193902015686035,-18900,-5750,6541,119241,1
39.233973026275635,1870,-10379,3364,118185,1
39.2738618850708,3311,-5623,2242,118119,1
39.313849687576294,2037,-944,-219,118251,1
39.3538863658905,1782,2995,-1126,118109,1
39.39383792877197,7845,9014,-4194,117935,1
39.433884143829346,5453,7747,-573,118014,1
39.47385263442993,1998,1078,-845,118426,1
39.51287484169006,-5206,-13774,6239,119377,1
39.5529146194458,-17174,-4602,13495,119089,1
39.592875242233276,2764,-9551,-221,118442,1
39.63324475288391,1028,-3962,851,118485,1
39.67285990715027,1332,1753,-1056,118335,1
39.71287250518799,6480,5976,-2533,118150,1
39.75288200378418,8290,7836,-2792,118145,1
39.79289197921753,4470,3392,363,118386,1
39.833210468292236,954,-8181,470,118910,1
39.872913122177124,-10540,-13832,11231,119350,1
39.912882804870605,-5664,-6384,1619,118546,1
39.95292806625366,1416,-5035,3481,118473,1
39.991840839385986,350,-1780,802,118428,1
40.03207278251648,2161,2877,-1951,118171,1
40.07194256782532,8536,8282,-4188,117920,1
40.11190915107727,6629,4980,1733,118164,1
40.15190410614014,-1002,-5429,2260,118678,1
40.192195892333984,-10062,-9934,9364,119197,1
40.23232960700989,-7169,-7335,2287,118415,1
40.2721061706543,1548,-6393,2665,118364,1
40.311874866485596,620,-2860,1234,118325,1
40.352596044540405,1215,2618,-157,118183,1
40.39202904701233,8027,9253,-5361,117799,1
40.432092905044556,6585,8044,-1031,117827,1
40.47086524963379,3849,1014,334,118080,1
40.51093578338623,-4861,-15686,5363,118997,1
40.55096459388733,-16665,-5754,14477,118205,1
40.59089517593384,3234,-5765,-1857,117998,1
40.6308708190918,1769,44,-785,118119,1
40.670928716659546,2584,6392,-2261,118064,1
40.710901498794556,8204,6125,-3711,118115,1
40.75091028213501,3910,722,2259,118451,1
40.79091835021973,-2168,-12000,3864,119071,1
40.83088970184326,-18333,-1547,8535,118913,1
40.87088131904602,1512,-7084,228,118388,1
40.91100287437439,2305,-3946,793,118389,1
40.95086979866028,812,-811,1208,118408,1
40.98986220359802,-484,321,1053,118407,1
41.0298547744751,431,2176,1279,118330,1
41.06993532180786,2142,7586,-946,118192,1
41.10989546775818,3758,8321,-254,118210,1
41.14992380142212,2813,5443,68,118307,1
41.19007420539856,1495,-1845,131,118643,1
41.22993302345276,-2538,-12027,6292,119132,1
41.27004361152649,-12455,-3736,7433,118380,1
41.30991196632385,2382,-8121,488,118045,1
41.35015296936035,1082,-3012,1479,118105,1
41.38987135887146,1225,1042,-143,118174,1
41.42889618873596,-1211,5773,-318,118193,1
41.46885824203491,185,11200,407,118111,1
41.508907318115234,1801,7566,3443,118128,1
41.549190044403076,2075,4403,-468,118275,1
41.58887314796448,2886,336,-1982,118591,1
41.62888813018799,1298,-10805,3600,118857,1
41.66951847076416,-12466,-6242,7822,118720,1
41.70887470245361,779,-7445,1323,118097,1
41.748998403549194,2823,-4802,1097,118259,1
41.788880348205566,150,-1032,747,118358,1
41.828857421875,-852,4454,61,118300,1
41.869067430496216,1253,9947,-444,118209,1
41.90786957740784,1536,9769,4718,118281,1
41.94788408279419,3100,3960,1009,118368,1
41.988062620162964,1980,-1712,2511,118527,1
42.02845072746277,-1628,-14332,4371,119063,1
42.06786584854126,-13092,-1938,4898,118845,1
42.10791206359863,3793,-10254,1623,118701,1
42.14795231819153,451,-2083,3487,118602,1
42.18805432319641,1500,2383,-56,118515,1
42.22790193557739,2430,8601,-195,118297,1
42.268619537353516,4052,12215,-5836,118330,1
42.30788278579712,2290,6667,1629,118373,1
42.347992181777954,3561,-1012,372,118639,1
42.38695168495178,-2886,-16707,5416,119250,1
42.42708945274353,-12438,-4505,8775,118623,1
42.4675498008728,3486,-8664,797,118254,1
42.50768971443176,1440,-2428,-720,118488,1
42.54692506790161,720,3001,-905,118514,1
42.586934089660645,-516,8850,-370,118405,1
42.62691020965576,4769,8637,2771,118277,1
42.66708326339722,2117,5419,6758,118369,1
42.70702052116394,635,-703,-1172,118517,1
42.74708938598633,-356,-6238,1812,118645,1
42.786978244781494,-5462,-7003,4571,118490,1
42.82689833641052,-2141,-3918,3281,118233,1
42.86607789993286,639,-5090,2082,118324,1
42.906004667282104,-794,-1765,-294,118408,1
42.945881366729736,-2293,3422,813,118271,1
42.98589086532593,2570,7481,2378,118135,1
43.02592182159424,4424,8203,4989,118125,1
43.06591439247131,1782,4023,2534,118215,1
43.105873823165894,819,35,-310,118306,1
43.1459014415741,178,-11137,393,118456,1
43.18592643737793,-8810,-6123,3902,118080,1
43.225894927978516,-640,-2179,6246,117848,1
43.26594519615173,643,-5143,-830,118147,1
43.305912017822266,-440,-306,418,118198,1
43.34488296508789,-460,4689,1317,118053,1
43.38490676879883,1137,8331,4485,118003,1
43.42492985725403,1567,6469,3453,118083,1
43.46487522125244,972,3241,1098,118242,1
43.50493860244751,1430,-2303,131,118454,1
43.544933795928955,-3805,-9816,5427,118648,1
43.58490753173828,-4320,-4652,4078,118110,1
43.62495946884155,687,-5024,-735,118072,1
43.664910554885864,-795,282,382,118015,1
43.705878496170044,924,4453,1479,117961,1
43.7449049949646,2702,6113,3226,117937,1
43.784996509552,1847,5728,3879,118037,1
43.823890209198,1929,3675,1471,118103,1
43.86392569541931,538,-552,-162,118224,1
43.90395259857178,-1525,-9735,3649,118499,1
43.943941593170166,-7570,-4822,3604,118204,1
43.983898878097534,2065,-4620,359,118195,1
44.02387046813965,-542,229,203,118266,1
44.063918590545654,-905,5648,1860,118163,1
44.10461449623108,2292,8158,4299,118105,1
44.14388823509216,985,4776,3308,118175,1
44.183889865875244,1034,1466,1329,118323,1
44.22392177581787,460,-4935,1200,118533,1
44.26395654678345,-6518,-8411,2783,118795,1
44.303587913513184,32,-8838,1676,118835,1
44.34290528297424,-490,-2709,521,118882,1
44.38296723365784,-1494,4706,1035,118716,1
44.4229416847229,1157,9734,6271,118602,1
44.46295404434204,4870,7847,7079,118726,1
44.50299787521362,2261,3967,-800,118879,1
44.54290270805359,2802,381,-3138,118774,1
44.58294606208801,3724,-10398,912,119035,1
44.62296748161316,-14577,-8066,7699,119296,1
44.66295599937439,1002,-8619,3157,118654,1
44.70306396484375,1049,-5275,785,118558,1
44.74288511276245,1443,1050,100,118419,1
44.78192591667175,2833,7356,-1220,118238,1
44.82196593284607,6971,10873,-788,118238,1
44.861910820007324,3579,5840,6148,118413,1
44.90190291404724,584,-1034,2580,118639,1
44.94194674491882,-1493,-12260,5110,118997,1
44.98197793960571,-15526,-3653,7097,118746,1
45.02195143699646,8091,-10406,-1687,118369,2
45.06195044517517,1859,-3527,614,118507,2
45.10211515426636,-1056,-665,-54,118503,2
45.14196300506592,-1213,3425,2154,118366,2
45.18190550804138,1561,8118,2487,118234,2
45.22191572189331,3833,8566,2458,118250,2
45.26090979576111,3551,4772,-49,118326,2
45.30092787742615,2058,-558,-1819,118495,2
45.3409378528595,-4973,-13810,4783,118925,2
45.380977392196655,-9611,-5738,10086,118358,2
45.420947313308716,835,-4289,1278,118318,2
45.46092748641968,1468,-883,524,118257,2
45.50094389915466,3716,3988,-862,118151,2
45.540894985198975,3062,4303,-92,118080,2
45.5816388130188,1405,3011,640,118102,2
45.620880126953125,449,870,230,118123,2
45.660897970199585,-628,-901,748,118138,2
45.69995832443237,-2427,-1953,2478,118101,2
45.73993539810181,-3190,-1657,2926,118054,2
45.779967069625854,-1494,-1162,1893,118032,2
45.81990909576416,-376,-743,997,118145,2
45.85996198654175,145,-573,728,118194,2
45.89991116523743,303,-410,1082,118239,2
45.93992877006531,-224,-716,1258,118233,2
45.97996211051941,-893,-745,1678,118245,2
46.01992106437683,-1737,-859,2231,118310,2
46.06057572364807,-3287,-184,2734,118334,2
46.09991407394409,-2989,299,2416,118278,2
46.1404287815094,-2399,472,2019,118262,2
46.178959131240845,-2193,854,2293,118234,2
46.21892523765564,-1449,544,1989,118219,2
46.25893044471741,-1153,350,1725,118237,2
46.29898691177368,-1041,-119,1567,118256,2
46.339155435562134,-1249,-482,1400,118241,2
46.37896680831909,-1482,-601,1558,118233,2
46.41900682449341,-1507,-503,2013,118155,2
46.45900368690491,-1354,-184,1882,118133,2
46.49894571304321,-1211,-153,1506,118128,2
46.53919219970703,-1106,-354,1188,118049,2
46.57897591590881,-1272,-546,1474,117933,2
46.65425491333008,-1224,-639,1272,117937,2
46.6581597328186,-1535,-695,1638,117923,2
46.69789242744446,-1386,-638,1913,117935,2
46.73832964897156,-1228,-502,1701,117931,2
46.777953147888184,-1102,-527,1581,117927,2
46.817935943603516,-923,-491,1428,117912,2
46.85798907279968,-749,-538,1262,117889,2
46.897924184799194,-704,-596,1369,117797,2
46.93808078765869,-972,-567,1876,117717,2
46.97804832458496,-1396,-661,1972,117672,2
47.01895594596863,-1786,-695,1685,117412,2
47.05797290802002,-1959,-430,1307,117271,2
47.09792733192444,-1650,-68,1230,117286,2
47.1371431350708,-1097,-80,1230,117438,2
47.17698812484741,-886,-141,1902,117573,2
47.21702575683594,-861,-224,1892,117730,2
47.2569465637207,-1262,-217,2026,117895,2
47.2969913482666,-1539,-228,1900,118006,2
47.33707118034363,-1241,-298,1750,118145,2
47.37695264816284,-1085,-363,1772,118215,2
47.41696238517761,-995,-337,1787,118226,2
47.45699596405029,-1232,-305,1857,118231,2
47.496952533721924,-1307,-319,1834,118194,2
47.53712034225464,-1223,-365,1628,118119,2
47.57694149017334,-1090,-344,1497,118139,2
47.615975856781006,-1016,-287,1413,118185,2
47.655993938446045,-1016,-211,1426,118215,2
47.6959228515625,-1088,-138,1540,118249,2
47.736106157302856,-1136,-103,1614,118282,2
47.77598762512207,-1130,-80,1613,118292,2
47.816073417663574,-1169,-45,1657,118289,2
47.85592341423035,-1170,-40,1632,118266,2
47.89594101905823,-1181,-31,1619,118247,2
47.93594765663147,-1368,-17,1637,118229,2
47.97605848312378,-1319,8,1547,118196,2
48.016002893447876,-1324,19,1675,118068,2
48.057026624679565,-1266,-40,1548,117963,2
48.09494924545288,-1274,-72,1430,117906,2
48.13498592376709,-1258,-92,1363,117843,2
48.17498445510864,-1401,-153,1424,117826,2
48.21499562263489,-1585,-100,1514,117844,2
48.25499081611633,-1600,-100,1514,117864,2
48.2949583530426,-1542,-100,1494,117901,2
48.33496904373169,-1491,-91,1466,117908,2
48.37506294250488,-1541,-50,1482,117912,2
48.41512489318848,-1529,-63,1467,117939,2
48.45499396324158,-1521,-54,1423,117968,2
48.4949369430542,-1522,-51,1355,117962,2
48.53498029708862,-1488,-11,1361,117820,2
48.57397961616516,-1493,44,1432,117759,2
48.61391806602478,-1521,77,1437,117812,2
48.653992891311646,-1552,113,1405,117887,2
48.693989753723145,-1510,114,1291,117926,2
48.733967304229736,-1459,122,1239,117948,2
48.77505588531494,-1437,117,1209,117920,2
48.81404519081116,-1422,115,1230,117863,2
48.853954553604126,-1306,88,1246,117716,2
48.893980264663696,-1348,44,1250,117647,2
48.93395471572876,-1239,10,1312,117603,2
48.97440958023071,-1309,-49,1209,117626,2
49.01397180557251,-1361,-65,1108,117469,2
49.053264141082764,-1525,-33,1261,117112,2
49.09298825263977,-1643,-67,1334,116940,2
49.13341236114502,-1566,-122,1425,116929,2
49.173099756240845,-1586,-181,1452,116981,2
49.21299362182617,-1699,-223,1355,117034,2
49.25300574302673,-1578,-203,1217,117035,2
49.293434858322144,-1687,-119,1339,117019,2
49.33299160003662,-1448,-116,1328,117001,2
49.37304973602295,-1362,-152,1447,117021,2
49.413472175598145,-1242,-249,1608,117052,2
49.453038692474365,-1372,-432,1579,117137,2
49.492008209228516,-1565,-470,1756,117184,2
49.53305006027222,-1423,-617,1643,117065,2
49.57210445404053,-1228,-686,1659,116848,2
49.61204266548157,-1056,-787,1599,116793,2
49.6520516872406,-857,-827,1696,116837,2
49.691983699798584,-841,-847,1629,116896,2
49.7319860458374,-863,-929,1488,116955,2
49.77197623252869,-830,-872,1554,116969,2
49.81199359893799,-879,-964,1389,116978,2
49.85193467140198,-700,-953,1508,116984,2
49.892019271850586,-704,-983,1627,117001,2
49.930980920791626,-700,-956,1637,117057,2
49.970948934555054,-607,-974,1747,117122,2
50.01102566719055,-638,-971,1749,117190,2
50.050962686538696,-725,-1002,1650,117144,2
50.09099221229553,-699,-956,1697,116851,2
50.13101077079773,-775,-922,1648,116740,2
50.171058893203735,-776,-974,1485,116777,2
50.211026430130005,-911,-1054,1424,116818,2
50.25101184844971,-765,-963,1487,116874,2
50.29104042053223,-741,-996,1527,116893,2
50.331018686294556,-630,-1046,1568,116917,2
50.37002110481262,-511,-1098,1695,116980,2
50.409958600997925,-637,-1222,1690,117042,2
50.45117950439453,-729,-1082,1744,117102,2
50.48998427391052,-678,-992,1876,117152,2
50.53002047538757,-498,-998,1882,117159,2
50.56994390487671,-439,-1018,1942,117064,2
50.6099967956543,-567,-1042,1835,116834,2
50.65001082420349,-917,-1282,1569,116716,2
50.69009017944336,-786,-1270,1466,116692,2
50.730045557022095,-774,-1184,1497,116726,2
50.770018577575684,-712,-1350,1435,116826,2
50.809035301208496,-741,-1139,1396,116954,2
50.84896278381348,-659,-888,1225,117006,2
50.88905119895935,-385,-1082,1447,116980,2
50.92900514602661,-283,-1152,1769,116922,2
50.96899199485779,-409,-978,1968,116958,2
51.00920367240906,-609,-923,1913,117061,2
51.04901885986328,-779,-988,1600,117128,2
51.08902454376221,-609,-999,1695,117126,2
51.12901568412781,-522,-909,1956,117110,2
51.16902160644531,-508,-802,1918,117034,2
51.20983529090881,-375,-953,1674,117020,2
51.24895977973938,-257,-1141,1505,117053,2
51.288026332855225,-187,-1038,1642,117097,2
51.328007221221924,-366,-1020,1726,117145,2
51.36799621582031,-700,-1073,1546,117212,2
51.40829396247864,-540,-886,1934,117241,2
51.44797921180725,-374,-1027,1665,117231,2
51.488038778305054,-259,-1003,1679,117199,2
51.528022050857544,-152,-1073,1870,117165,2
51.567981004714966,-401,-974,1900,117172,2
51.60810089111328,-551,-882,1925,117210,2
51.64802312850952,-585,-940,2002,117232,2
51.68801951408386,-648,-894,1885,117168,2
51.727986335754395,-518,-818,1643,117095,2
51.767173290252686,-299,-894,1472,117125,2
51.80719971656799,-202,-1097,1579,117214,2
51.84799933433533,-519,-1393,1543,117294,2
51.88698983192444,-950,-1289,1449,117356,2
51.926985025405884,-792,-1348,1585,117364,2
51.96698832511902,-384,-1301,1874,117368,2
52.007014751434326,-207,-1215,2051,117411,2
52.047019958496094,-279,-1133,1799,117500,2
52.08706521987915,-350,-904,1540,117567,2
52.12780499458313,-338,-895,1104,117600,2
52.16697120666504,-444,-998,1148,117623,2
52.20616006851196,-691,-1163,1371,117547,2
52.24604082107544,-1100,-1136,1735,117513,2
52.28701734542847,-1469,-997,2029,117540,2
52.326064586639404,-1225,-1057,1860,117592,2
52.366034746170044,-843,-1097,1662,117643,2
52.406002044677734,-663,-1034,1556,117641,2
52.44606924057007,-623,-1107,1439,117633,2
52.48670792579651,-714,-1219,1512,117603,2
52.52603530883789,-804,-1310,1518,117597,2
52.5660285949707,-526,-1264,1651,117595,2
52.6060209274292,-198,-1195,1819,117621,2
52.64524745941162,-225,-1150,1731,117651,2
52.68516445159912,-337,-1140,1584,117597,2
52.725029706954956,-481,-1166,1525,117536,2
52.76501822471619,-625,-1217,1352,117557,2
52.805126905441284,-734,-1089,1338,117577,2
52.84526705741882,-735,-1014,1466,117621,2
52.88509702682495,-844,-1058,1367,117630,2
52.92501401901245,-1004,-1074,1422,117603,2
52.96521997451782,-997,-1048,1511,117588,2
53.00499987602234,-1021,-973,1597,117548,2
53.04502296447754,-1057,-920,1705,117564,2
53.0850031375885,-1104,-916,1826,117577,2
53.12420892715454,-1021,-936,1797,117606,2
53.16400694847107,-957,-1020,1682,117606,2
53.20401978492737,-917,-1019,1599,117504,2
53.244006395339966,-863,-969,1615,117434,2
53.28418827056885,-857,-902,1639,117443,2
53.32420206069946,-883,-912,1615,117458,2
53.3641791343689,-921,-979,1538,117476,2
53.40405344963074,-939,-1019,1608,117486,2
53.444493770599365,-1007,-1017,1611,117484,2
53.48416471481323,-1046,-1006,1590,117487,2
53.52410006523132,-996,-1029,1545,117505,2
53.563294410705566,-901,-1030,1548,117539,2
53.60308527946472,-741,-1039,1466,117557,2
53.64330196380615,-889,-959,1511,117607,2
53.683225870132446,-973,-840,1564,117570,2
53.723000288009644,-1057,-799,1540,117495,2
53.763200998306274,-1227,-724,1459,117449,2
53.8029990196228,-1311,-665,1492,117477,2
53.84385585784912,-1250,-645,1449,117476,2
53.88301873207092,-1175,-658,1415,117518,2
53.9232759475708,-1178,-674,1485,117533,2
53.96302938461304,-1244,-687,1527,117569,2
54.002036571502686,-1279,-726,1447,117591,2
54.0422625541687,-1263,-785,1385,117613,2
54.08202886581421,-1280,-835,1268,117626,2
54.12201547622681,-1258,-828,1285,117666,2
54.162020444869995,-1207,-893,1291,117674,2
54.20201826095581,-1191,-900,1313,117608,2
54.24210166931152,-1204,-885,1327,117463,2
54.282386302948,-1193,-904,1343,117403,2
54.322009563446045,-1179,-901,1453,117413,2
54.362221002578735,-1131,-947,1359,117425,2
54.40204167366028,-1080,-923,1270,117472,2
54.4422812461853,-1086,-899,1288,117513,2
54.480995893478394,-1109,-920,1365,117526,2
54.52108359336853,-1185,-902,1372,117544,2
54.56102395057678,-1199,-930,1322,117565,2
54.60102915763855,-1234,-982,1185,117599,2
54.641340255737305,-1231,-1065,1108,117613,2
54.68103528022766,-1218,-1132,1107,117661,2
54.72106432914734,-1324,-1147,1149,117561,2
54.761014461517334,-1344,-1157,1145,117339,2
54.801002740859985,-1311,-1151,1147,117226,2
54.84105634689331,-1308,-1132,1161,117235,2
54.88098883628845,-1376,-1179,1193,117322,2
54.9200394153595,-1389,-1190,1220,117372,2
54.96001839637756,-1418,-1130,1342,117408,2
55.00004243850708,-1292,-1132,1373,117424,2
55.04002666473389,-1172,-1157,1334,117448,2
55.0802698135376,-1110,-1166,1253,117468,2
55.1200225353241,-1132,-1214,1304,117479,2
55.16025137901306,-1254,-1139,1260,117457,2
55.20007872581482,-1289,-1105,1141,117449,2
55.24005150794983,-1190,-1152,1091,117371,2
55.280210971832275,-1180,-1114,1147,117149,2
55.32002806663513,-1219,-1081,1098,117002,2
55.360023021698,-1271,-1031,1057,117047,2
55.39906048774719,-1251,-1032,1069,117142,2
55.439183950424194,-1292,-1087,1083,117235,2
55.47907757759094,-1344,-1123,1144,117276,2
55.519943952560425,-1381,-1098,1090,117301,2
55.55908465385437,-1394,-962,1127,117317,2
55.59903287887573,-1410,-882,1213,117330,2
55.639071226119995,-1440,-923,1228,117321,2
55.67929792404175,-1481,-1083,1138,117319,2
55.71911644935608,-1462,-1190,1007,117317,2
55.75921821594238,-1307,-1146,986,117312,2
55.79906749725342,-1188,-1086,1024,117242,2
55.83801531791687,-1173,-1083,1134,117141,2
55.87807011604309,-1271,-1099,1170,117206,2
55.91801738739014,-1313,-1013,1226,117396,2
55.9580500125885,-1332,-1102,1376,117600,2
55.99803376197815,-1214,-1103,1352,117722,2
56.038207054138184,-1077,-1175,1349,117792,2
56.07817506790161,-1043,-1265,1182,117809,2
56.11817646026611,-1039,-1199,1141,117783,2
56.1581552028656,-1024,-1150,1162,117767,2
56.19812726974487,-970,-1141,1221,117730,2
56.23804974555969,-1026,-1179,1226,117735,2
56.27816677093506,-1147,-1237,1156,117752,2
56.31704640388489,-1209,-1255,1074,117763,2
56.35721516609192,-1219,-1213,1110,117710,2
56.39703059196472,-1198,-1165,1182,117607,2
56.437028646469116,-1231,-1128,1217,117589,2
56.47755575180054,-1264,-1159,1153,117630,2
56.51718831062317,-1272,-1211,1124,117643,2
56.55701971054077,-1228,-1245,1114,117657,2
56.597177267074585,-1191,-1269,1110,117640,2
56.637049198150635,-1188,-1264,1130,117634,2
56.67705678939819,-1169,-1251,1157,117628,2
56.71703886985779,-1169,-1218,1247,117649,2
56.756242990493774,-1138,-1228,1300,117665,2
56.79607677459717,-1142,-1206,1284,117674,2
56.83606767654419,-1108,-1223,1208,117692,2
56.87612962722778,-1086,-1249,1187,117701,2
56.916075706481934,-1102,-1230,1189,117639,2
56.95606327056885,-1175,-1223,1165,117515,2
56.99606800079346,-1186,-1279,1129,117497,2
57.03606343269348,-1186,-1298,1132,117499,2
57.07610583305359,-1191,-1314,1109,117514,2
57.116254806518555,-1153,-1338,1040,117520,2
57.156237840652466,-1133,-1331,1039,117559,2
57.19503998756409,-1108,-1372,1042,117565,2
57.27606248855591,-1105,-1336,1103,117581,2
57.2780225276947,-1076,-1353,1127,117603,2
57.31508159637451,-1022,-1310,1107,117636,2
57.35511565208435,-952,-1305,1067,117652,2
57.39503240585327,-916,-1248,1101,117666,2
57.4350700378418,-955,-1226,1223,117640,2
57.47502517700195,-1026,-1301,1309,117482,2
57.515032052993774,-1166,-1307,1282,117387,2
57.555222034454346,-1210,-1441,1209,117396,2
57.5951943397522,-1141,-1458,1215,117446,2
57.634414196014404,-973,-1393,1211,117506,2
57.67412328720093,-831,-1332,1137,117545,2
57.71418261528015,-738,-1183,1152,117557,2
57.75402355194092,-837,-1160,1194,117615,2
57.794130086898804,-962,-1230,1239,117636,2
57.8342490196228,-1122,-1224,1212,117655,2
57.87408089637756,-1159,-1261,1174,117674,2
57.914084672927856,-1145,-1294,1192,117673,2
57.95409560203552,-1150,-1300,1137,117644,2
57.994242668151855,-1136,-1290,1102,117598,2
58.034088134765625,-1192,-1231,1138,117462,2
58.07407593727112,-1245,-1153,1165,117467,2
58.11369347572327,-1242,-1140,1208,117495,2
58.15319609642029,-1217,-1157,1235,117536,2
58.19305109977722,-1187,-1175,1206,117574,2
58.23306059837341,-1243,-1168,1167,117590,2
58.27307724952698,-1276,-1188,1182,117595,2
58.31322479248047,-1313,-1266,1198,117578,2
58.353230237960815,-1309,-1283,1170,117575,2
58.39318251609802,-1239,-1246,1176,117545,2
58.43305420875549,-1172,-1226,1212,117551,2
58.473398208618164,-1096,-1207,1218,117549,2
58.513627767562866,-1079,-1304,1170,117577,2
58.5520384311676,-1104,-1378,1146,117491,2
58.5920672416687,-1174,-1428,1138,117391,2
58.63224482536316,-1172,-1290,1094,117393,2
58.67205500602722,-1024,-1169,1099,117436,2
58.71221041679382,-882,-1200,1106,117488,2
58.75234341621399,-863,-1237,1203,117525,2
58.7928421497345,-1029,-1309,1245,117518,2
58.83233380317688,-1179,-1244,1122,117471,2
58.87224221229553,-1156,-1253,1058,117470,2
58.912060260772705,-1017,-1290,1104,117448,2
58.95209240913391,-978,-1287,1130,117491,2
58.99124813079834,-1062,-1245,1188,117541,2
59.03105592727661,-1107,-1203,1276,117583,2
59.07105374336243,-1102,-1210,1320,117582,2
59.112072706222534,-1143,-1217,1299,117523,2
59.15105223655701,-1134,-1223,1327,117533,2
59.19122886657715,-1092,-1216,1332,117587,2
59.23104929924011,-1081,-1239,1291,117636,2
59.27106785774231,-1077,-1244,1255,117672,2
59.31156277656555,-1063,-1263,1257,117667,2
59.351250886917114,-1036,-1291,1202,117686,2
59.39127326011658,-1020,-1236,1310,117692,2
59.431946992874146,-1020,-1239,1311,117724,2
59.47029685974121,-1007,-1260,1310,117762,2
59.510687828063965,-1005,-1254,1230,117772,2
59.55035591125488,-979,-1190,1281,117787,2
59.59061145782471,-978,-1176,1353,117798,2
59.63006663322449,-978,-1230,1300,117829,2
59.67004632949829,-973,-1238,1332,117762,2
59.71008229255676,-946,-1232,1339,117726,2
59.75060701370239,-905,-1244,1302,117715,2
59.79127097129822,-869,-1259,1291,117704,2
59.830069065093994,-831,-1280,1224,117711,2
59.870341062545776,-794,-1285,1180,117722,2
59.90905952453613,-853,-1256,1247,117747,2
59.94919443130493,-888,-1245,1316,117765,2
59.98996067047119,-952,-1240,1335,117782,2
60.029057025909424,-990,-1191,1370,117788,2
60.06906342506409,-997,-1137,1409,117820,2
60.109063386917114,-993,-1097,1430,117816,2
60.14922094345093,-1001,-1186,1426,117799,2
60.18922424316406,-1010,-1419,1441,117755,2
60.229214668273926,-1058,-1422,1456,117679,2
60.269065141677856,-999,-1322,1268,117561,2
60.30921745300293,-856,-1155,1206,117578,2
60.34823656082153,-784,-1095,1236,117611,2
60.38822078704834,-844,-1148,1249,117657,2
60.428234815597534,-948,-1165,1291,117684,2
60.46819472312927,-1023,-1185,1331,117712,2
60.50823426246643,-1053,-1322,1521,117722,2
60.54825043678284,-1065,-1353,1752,117724,2
60.588223457336426,-1114,-1174,1738,117711,2
60.62821960449219,-1042,-1109,1417,117685,2
60.66804003715515,-924,-1207,1210,117701,2
60.70821762084961,-870,-1293,1105,117692,2
60.74836230278015,-916,-1310,1005,117682,2
60.78707695007324,-991,-1237,1067,117600,2
60.827070474624634,-946,-1269,1071,117563,2
60.867058753967285,-946,-1253,1077,117593,2
60.907262086868286,-951,-1252,1107,117641,2
60.947054862976074,-961,-1300,1104,117676,2
60.98707294464111,-1023,-1277,1161,117691,2
61.02704334259033,-1075,-1273,1238,117680,2
61.06706953048706,-1069,-1278,1216,117654,2
61.1070921421051,-1077,-1292,1217,117643,2
61.14775109291077,-1095,-1296,1303,117618,2
61.18708825111389,-1122,-1347,1329,117645,2
61.22607970237732,-1130,-1341,1277,117668,2
61.26608157157898,-1071,-1314,1262,117643,2
61.30627131462097,-992,-1272,1187,117552,2
61.34633755683899,-982,-1241,1140,117545,2
61.38621950149536,-1000,-1256,1161,117584,2
61.42609453201294,-1073,-1251,1136,117629,2
61.466233253479004,-1072,-1289,1074,117653,2
61.5060977935791,-1126,-1271,1083,117640,2
61.54614520072937,-1074,-1336,1121,117620,2
61.58610916137695,-1029,-1365,1110,117611,2
61.62621235847473,-998,-1363,1035,117629,2
61.666205644607544,-985,-1360,1094,117657,2
61.705217599868774,-1044,-1333,1284,117683,2
61.74538803100586,-1074,-1291,1349,117720,2
61.785271406173706,-1047,-1255,1390,117727,2
61.82523441314697,-988,-1317,1291,117659,2
61.86513137817383,-937,-1340,1192,117622,2
61.90512299537659,-1014,-1318,1115,117636,2
61.94578266143799,-1079,-1292,1071,117673,2
61.98508810997009,-1145,-1276,1019,117684,2
62.02521872520447,-1153,-1241,1175,117709,2
62.06510591506958,-1140,-1209,1384,117702,2
62.10519075393677,-1212,-1191,1541,117725,2
62.14415621757507,-1256,-1233,1464,117736,2
62.184205055236816,-1112,-1216,1354,117760,2
62.22407817840576,-995,-1220,1300,117768,2
62.26419234275818,-925,-1304,1198,117785,2
62.30420899391174,-899,-1324,1131,117789,2
62.344496726989746,-918,-1357,1080,117805,2
62.384151220321655,-1015,-1359,1072,117729,2
62.42421555519104,-1050,-1320,1132,117592,2
62.464146852493286,-1048,-1258,1252,117580,2
62.504189014434814,-969,-1272,1310,117573,2
62.54412913322449,-890,-1293,1280,117616,2
62.583282470703125,-864,-1283,1248,117647,2
62.62357521057129,-836,-1274,1244,117679,2
62.66308832168579,-855,-1295,1195,117678,2
62.703195095062256,-911,-1298,1197,117715,2
62.743197441101074,-955,-1280,1318,117709,2
62.783093214035034,-1040,-1247,1319,117736,2
62.82311654090881,-1067,-1242,1277,117749,2
62.86319899559021,-1072,-1253,1274,117728,2
62.90320611000061,-1070,-1229,1204,117713,2
62.94318103790283,-1101,-1244,1192,117706,2
62.98318076133728,-1159,-1244,1204,117676,2
63.023231744766235,-1217,-1233,1241,117602,2
63.062225580215454,-1272,-1221,1326,117558,2
63.10219478607178,-1270,-1205,1332,117577,2
63.142184257507324,-1161,-1221,1247,117628,2
63.182411432266235,-1036,-1203,1231,117665,2
63.22208619117737,-982,-1186,1219,117687,2
63.26221990585327,-993,-1213,1199,117695,2
63.30212688446045,-1043,-1244,1168,117697,2
63.34228873252869,-1073,-1261,1127,117662,2
63.38258743286133,-1082,-1270,1113,117670,2
63.422762870788574,-1036,-1271,1129,117661,2
63.46210741996765,-1014,-1279,1129,117669,2
63.5011830329895,-1016,-1226,1196,117689,2
63.541152000427246,-1031,-1228,1239,117703,2
63.58124375343323,-1045,-1219,1269,117681,2
63.62110185623169,-1069,-1198,1358,117595,2
63.66110610961914,-1137,-1193,1350,117527,2
63.70119500160217,-1164,-1193,1323,117557,2
63.741212129592896,-1143,-1216,1304,117578,2
63.781543493270874,-1118,-1217,1225,117588,2
63.82108736038208,-1116,-1245,1204,117574,2
63.8611946105957,-1139,-1257,1179,117583,2
63.90117645263672,-1135,-1242,1133,117577,2
63.94118046760559,-1104,-1258,1160,117593,2
63.980512857437134,-1106,-1260,1169,117606,2
64.02028012275696,-1104,-1272,1158,117631,2
64.06021118164062,-1062,-1268,1177,117650,2
64.10022830963135,-1021,-1271,1217,117658,2
64.14023923873901,-994,-1280,1197,117672,2
64.18027901649475,-966,-1281,1207,117649,2
64.22018766403198,-967,-1241,1281,117512,2
64.2601945400238,-1021,-1225,1246,117425,2
64.30019974708557,-1047,-1250,1243,117420,2
64.34020233154297,-1072,-1212,1271,117435,2
64.38063621520996,-1102,-1244,1227,117487,2
64.41919827461243,-1159,-1242,1234,117537,2
64.45921778678894,-1155,-1240,1217,117568,2
64.49918818473816,-1098,-1227,1226,117600,2
64.53921031951904,-1080,-1193,1242,117660,2
64.57920813560486,-1128,-1184,1242,117714,2
64.61920714378357,-1046,-1221,1226,117779,2
64.6592161655426,-1088,-1238,1231,117789,2
64.69920778274536,-1177,-1171,1317,117797,2
64.73920607566833,-1213,-1183,1368,117782,2
64.77917051315308,-1118,-1194,1333,117761,2
64.81918835639954,-984,-1199,1308,117728,2
64.85918688774109,-913,-1205,1305,117712,2
64.89820671081543,-922,-1219,1254,117734,2
64.93819522857666,-926,-1230,1236,117754,2
64.97822260856628,-953,-1271,1194,117780,2
65.0183916091919,-975,-1249,1173,117792,2
65.05818915367126,-972,-1281,1220,117818,2
65.09820914268494,-1060,-1271,1274,117809,2
65.13822960853577,-1141,-1287,1264,117784,2
65.17821002006531,-1106,-1303,1176,117739,2
65.21819138526917,-1040,-1304,1110,117729,2
65.25819444656372,-983,-1308,1173,117695,2
65.29821920394897,-951,-1282,1298,117697,2
65.33823108673096,-936,-1285,1350,117715,2
65.3771870136261,-893,-1258,1350,117663,2
65.41741371154785,-884,-1254,1304,117593,2
65.45716905593872,-867,-1202,1311,117599,2
65.4972128868103,-839,-1155,1325,117623,2
65.53720116615295,-776,-1272,1394,117682,2
65.57730078697205,-783,-1377,1511,117668,2
65.61721682548523,-853,-1457,1487,117648,2
65.65719819068909,-904,-1291,1525,117603,2
65.69718217849731,-787,-1123,1490,117605,2
65.73721075057983,-683,-1069,1390,117606,2
65.77715682983398,-616,-1143,1316,117621,2
65.81621098518372,-655,-1217,1251,117645,2
65.85619044303894,-760,-1236,1327,117661,2
65.8961923122406,-815,-1219,1497,117664,2
65.9362063407898,-835,-1158,1640,117659,2
65.97621130943298,-868,-1279,1672,117563,2
66.01616668701172,-918,-1302,1565,117538,2
66.0561933517456,-904,-1259,1422,117571,2
66.09664916992188,-852,-1250,1295,117587,2
66.13622522354126,-771,-1232,1134,117583,2
66.17619109153748,-755,-1271,1077,117545,2
66.21714758872986,-813,-1329,1071,117523,2
66.25619053840637,-909,-1351,1146,117558,2
66.29526257514954,-956,-1348,1208,117575,2
66.33516669273376,-998,-1353,1352,117598,2
66.37518644332886,-1040,-1296,1491,117611,2
66.41526484489441,-1060,-1229,1483,117645,2
66.45515608787537,-976,-1354,1399,117651,2
66.49516177177429,-830,-1425,1338,117606,2
66.53518319129944,-749,-1414,1281,117494,2
66.57516527175903,-713,-1370,1275,117444,2
66.61556768417358,-700,-1352,1313,117469,2
66.65520691871643,-695,-1340,1341,117485,2
66.6951756477356,-898,-1304,1307,117547,2
66.73517870903015,-1367,-1175,1530,117592,2
66.77417874336243,-1794,-1031,1839,117643,2
66.81460881233215,-1897,-1018,1836,117650,2
66.85419702529907,-1732,-1031,1808,117682,2
66.894216299057,-1895,-913,1996,117713,2
66.93420052528381,-1691,-864,1848,117735,2
66.97417688369751,-1532,-683,1751,117745,2
67.01417875289917,-1208,-558,1567,117735,2
67.05416321754456,-999,-413,1453,117709,2
67.09416270256042,-928,-245,1408,117691,2
67.13417458534241,-804,-66,1304,117667,2
67.1741943359375,-826,97,1302,117707,2
67.2133047580719,-851,240,1300,117731,2
67.25316834449768,-834,337,1294,117754,2
67.29317140579224,-1018,443,1377,117772,2
67.33318328857422,-1065,556,1416,117801,2
67.37321352958679,-1070,618,1402,117805,2
67.41342234611511,-1110,677,1403,117815,2
67.45325016975403,-1072,710,1356,117817,2
67.49319267272949,-1100,750,1399,117792,2
67.53314685821533,-1129,768,1353,117770,2
67.57823514938354,-1108,765,1370,117752,2
67.61315059661865,-1036,739,1300,117746,2
67.653160572052,-918,662,1196,117751,2
67.69219326972961,-563,514,1071,117745,2
67.73215794563293,-133,245,925,117745,2
67.7722053527832,-553,-18,1053,117761,2
67.81219029426575,-1352,-51,1526,117792,2
67.85220265388489,-1925,-91,1801,117820,2
67.8922107219696,-2210,-113,1742,117835,2
67.93224167823792,-2022,-63,1653,117820,2
67.97310328483582,-1459,-108,1442,117759,2
68.0121681690216,-1104,-236,1257,117719,2
68.05218839645386,-864,-391,1174,117692,2
68.0922179222107,-607,-638,1048,117684,2
68.13229632377625,-617,-952,1181,117699,2
68.17120027542114,-677,-1398,1196,117739,2
68.21119904518127,-1255,-1688,1492,117746,2
68.25118684768677,-1702,-1864,1674,117720,2
68.29118514060974,-2156,-1634,1714,117677,2
68.33117151260376,-2095,-1426,1589,117715,2
68.37124109268188,-1888,-1193,1434,117734,2
68.41119956970215,-1539,-1103,1438,117743,2
68.45151615142822,-1303,-1120,1412,117719,2
68.49118757247925,-1214,-1109,1460,117727,2
68.53118777275085,-1092,-1234,1361,117729,2
68.57118535041809,-1074,-1342,1413,117745,2
68.61018061637878,-1051,-1407,1402,117767,2
68.65020751953125,-1011,-1462,1345,117782,2
68.69018745422363,-988,-1416,1293,117781,2
68.73028206825256,-959,-1314,1190,117815,2
68.77022528648376,-886,-1268,1105,117821,2
68.8101966381073,-874,-1197,1110,117768,2
68.85046553611755,-862,-1235,1088,117725,2
68.89018774032593,-906,-1300,1147,117717,2
68.93019437789917,-962,-1427,1188,117720,2
68.97020864486694,-1003,-1556,1204,117723,2
69.01033306121826,-1108,-1432,1143,117740,2
69.05021166801453,-1049,-1341,1015,117756,2
69.0891797542572,-908,-1333,998,117767,2
69.12918043136597,-791,-1391,987,117786,2
69.16918802261353,-772,-1489,974,117814,2
69.20919752120972,-884,-1602,1055,117826,2
69.25008344650269,-1071,-1639,1138,117845,2
69.28921222686768,-1226,-1545,1155,117830,2
69.32919764518738,-1195,-1373,1165,117823,2
69.3693995475769,-981,-1317,1171,117771,2
69.40926337242126,-842,-1257,1208,117746,2
69.44916343688965,-770,-1272,1240,117688,2
69.48925542831421,-846,-1343,1243,117713,2
69.52820491790771,-1008,-1434,1106,117737,2
69.56831645965576,-1113,-1444,1056,117776,2
69.60826301574707,-1167,-1393,1027,117788,2
69.64827871322632,-1094,-1360,1106,117806,2
69.68825221061707,-997,-1423,1126,117814,2
69.7282075881958,-973,-1413,1005,117822,2
69.76819825172424,-1042,-1320,1077,117815,2
69.80821251869202,-1081,-1315,1157,117791,2
69.84843230247498,-1127,-1346,1132,117762,2
69.88828206062317,-1151,-1346,1081,117758,2
69.92825245857239,-1109,-1325,1091,117756,2
69.96827220916748,-1059,-1287,1101,117766,2
70.00724172592163,-1047,-1280,1138,117711,2
70.04735684394836,-1033,-1309,1120,117690,2
70.08723473548889,-1048,-1358,1081,117713,2
70.12727451324463,-1076,-1379,1051,117758,2
70.16724467277527,-1085,-1403,1059,117811,2
70.20725178718567,-1110,-1400,1123,117805,2
70.24729228019714,-1155,-1406,1183,117803,2
70.28728079795837,-1188,-1445,1169,117763,2
70.32731771469116,-1165,-1511,1124,117755,2
70.36734867095947,-1144,-1565,1041,117740,2
70.40727019309998,-1083,-1649,961,117756,2
70.44729208946228,-996,-1657,847,117783,2
70.48629760742188,-918,-1613,764,117795,2
70.52629470825195,-859,-1560,755,117807,2
70.56629228591919,-819,-1552,805,117816,2
70.60631728172302,-805,-1560,786,117775,2
70.64647555351257,-848,-1529,845,117751,2
70.6862428188324,-923,-1520,942,117745,2
70.72626423835754,-1019,-1457,1078,117733,2
70.76632475852966,-1120,-1459,1233,117704,2
70.80633974075317,-1238,-1443,1301,117705,2
70.84629368782043,-1283,-1450,1193,117699,2
70.88666677474976,-1178,-1505,1012,117698,2
70.92531275749207,-1051,-1434,980,117713,2
70.96532034873962,-1010,-1294,1132,117715,2
71.0053071975708,-941,-1243,1325,117742,2
71.04528403282166,-915,-1324,1419,117759,2
71.08564949035645,-903,-1435,1243,117773,2
71.12611198425293,-899,-1398,1109,117796,2
71.16531372070312,-843,-1399,1121,117780,2
71.20523357391357,-792,-1399,1173,117737,2
71.24531245231628,-746,-1304,1183,117635,2
71.28536534309387,-669,-1266,1169,117592,2
71.32552075386047,-685,-1126,1324,117626,2
71.36526298522949,-703,-1385,1520,117672,2
71.40434765815735,-957,-1649,1628,117702,2
71.44430422782898,-1152,-1413,1525,117716,2
71.4854028224945,-938,-1209,1556,117730,2
71.52429461479187,-642,-1076,1555,117743,2
71.56430411338806,-529,-1033,1381,117754,2
71.60438895225525,-473,-1180,1197,117765,2
71.64423656463623,-621,-1182,1190,117754,2
71.68431615829468,-701,-1187,1161,117729,2
71.72426557540894,-697,-1246,1201,117708,2
71.76424884796143,-684,-1289,1167,117695,2
71.8042619228363,-791,-1144,1270,117692,2
71.84422612190247,-872,-971,1390,117696,2
71.88406562805176,-917,-1161,1425,117638,2
71.9233090877533,-1003,-1233,1573,117642,2
71.96331810951233,-1136,-1392,1455,117678,2
72.00326490402222,-1197,-1424,1458,117710,2
72.04326915740967,-1253,-1241,1586,117744,2
72.08330297470093,-1239,-1279,1565,117738,2
72.12326216697693,-1195,-1254,1468,117743,2
72.16327023506165,-1112,-1178,1342,117709,2
72.20327043533325,-1021,-1143,1230,117695,2
72.24323606491089,-967,-1119,1243,117703,2
72.28332614898682,-952,-1178,1233,117730,2
72.32234191894531,-961,-1358,1195,117765,2
72.36225938796997,-1008,-1455,1151,117778,2
72.4022421836853,-1065,-1547,1040,117792,2
72.44224286079407,-1062,-1589,916,117807,2
72.48225450515747,-1074,-1507,852,117749,2
72.52230906486511,-981,-1359,902,117737,2
72.56230211257935,-874,-1208,1031,117761,2
72.60224437713623,-863,-1154,1172,117761,2
72.6422951221466,-894,-1227,1311,117757,2
72.68232583999634,-1036,-1381,1358,117732,2
72.72232580184937,-1184,-1547,1152,117738,2
72.7623450756073,-1228,-1545,849,117775,2
72.80123257637024,-1107,-1470,815,117793,2
72.84124946594238,-997,-1335,995,117786,2
72.881272315979,-881,-1211,1297,117801,2
72.92128944396973,-837,-1140,1500,117812,2
72.96133422851562,-940,-1074,1514,117833,2
73.00134539604187,-996,-1147,1429,117825,2
73.04125809669495,-1053,-1174,1353,117812,2
73.08130598068237,-1084,-1208,1282,117746,2
73.12182092666626,-1046,-1263,1169,117697,2
73.16184163093567,-1018,-1319,1008,117698,2
73.20125818252563,-949,-1279,1081,117705,2
73.24027013778687,-1013,-1258,1249,117724,2
73.2802426815033,-1092,-1274,1369,117752,2
73.32026743888855,-1230,-1329,1438,117764,2
73.36028265953064,-1284,-1426,1331,117799,2
73.40025591850281,-1166,-1460,1249,117793,2
73.44026708602905,-975,-1469,1249,117787,2
73.48045468330383,-849,-1432,1329,117761,2
73.52041935920715,-767,-1412,1427,117735,2
73.56023406982422,-789,-1349,1399,117712,2
73.60027647018433,-800,-1366,1181,117702,2
73.64026236534119,-810,-1394,1101,117673,2
73.680255651474,-879,-1378,1098,117636,2
73.71926379203796,-953,-1332,1075,117667,2
73.75931072235107,-921,-1373,1050,117709,2
73.79938197135925,-936,-1420,1031,117730,2
73.83923411369324,-1002,-1402,1048,117765,2
73.87922644615173,-1027,-1392,1060,117791,2
73.9194917678833,-1057,-1396,1075,117776,2
73.95931768417358,-1039,-1398,1035,117767,2
73.99929523468018,-978,-1381,1031,117717,2
74.0392394065857,-964,-1392,1050,117710,2
74.07927465438843,-986,-1349,1117,117677,2
74.1195056438446,-994,-1328,1142,117708,2
74.15828704833984,-979,-1371,1096,117721,2
74.19857144355774,-1008,-1350,1042,117717,2
74.2384762763977,-1035,-1349,1077,117678,2
74.28058314323425,-1082,-1369,1085,117670,2
74.31831455230713,-1102,-1385,1031,117684,2
74.35837602615356,-1143,-1359,1049,117708,2
74.39831113815308,-1193,-1323,1081,117717,2
74.43832802772522,-1191,-1347,1084,117706,2
74.47839617729187,-1179,-1383,1123,117651,2
74.51859593391418,-1193,-1356,1164,117651,2
74.55827283859253,-1200,-1300,1230,117653,2
74.59828019142151,-1207,-1317,1246,117688,2
74.63740730285645,-1185,-1385,1203,117700,2
74.67725086212158,-1126,-1428,1150,117722,2
74.71781158447266,-1061,-1496,1075,117736,2
74.7572705745697,-982,-1524,1085,117730,2
74.79741930961609,-974,-1435,1094,117685,2
74.83735704421997,-957,-1380,1095,117661,2
74.87729120254517,-945,-1425,1036,117672,2
74.91742277145386,-1021,-1350,1017,117677,2
74.95735144615173,-1035,-1420,1019,117666,2
74.99731469154358,-1047,-1332,1147,117658,2
75.03731226921082,-1055,-1292,1195,117681,2
75.07631754875183,-1024,-1316,1245,117697,2
75.11637759208679,-1015,-1332,1194,117702,2
75.15624690055847,-977,-1355,1063,117719,2
75.19630432128906,-943,-1291,1056,117738,2
75.2362551689148,-999,-1304,1160,117750,2
75.27649021148682,-1025,-1294,1273,117769,2
75.31631541252136,-1005,-1336,1182,117747,2
75.35649728775024,-1011,-1324,1163,117667,2
75.39629817008972,-1018,-1270,1231,117619,2
75.43623423576355,-964,-1269,1318,117610,2
75.47634172439575,-856,-1259,1309,117636,2
75.51648688316345,-766,-1271,1196,117648,2
75.55525374412537,-686,-1380,1008,117683,2
75.59527897834778,-725,-1558,1282,117691,2
75.6352767944336,-936,-1474,1752,117705,2
75.67523717880249,-1180,-1183,1781,117696,2
75.71531963348389,-1070,-1000,1325,117706,2
75.75526762008667,-904,-1008,1179,117715,2
75.79532241821289,-892,-1009,1342,117697,2
75.83529663085938,-1009,-1187,1501,117655,2
75.87525606155396,-1137,-1218,1592,117619,2
75.91525220870972,-1095,-1129,1625,117523,2
75.95611262321472,-939,-1189,1534,117520,2
75.99425554275513,-833,-1268,1418,117566,2
76.03428268432617,-789,-1309,1162,117613,2
76.07423710823059,-732,-1332,1047,117632,2
76.11427068710327,-750,-1360,1015,117668,2
76.15454316139221,-785,-1364,1147,117678,2
76.19426989555359,-838,-1308,1241,117686,2
76.23460364341736,-820,-1303,1326,117682,2
76.27425146102905,-817,-1279,1406,117668,2
76.31426239013672,-849,-1243,1425,117648,2
76.35435700416565,-895,-1212,1419,117631,2
76.394278049469,-871,-1272,1415,117598,2
76.43438744544983,-880,-1234,1463,117561,2
76.47330069541931,-944,-1160,1490,117502,2
76.51326441764832,-954,-1156,1466,117526,2
76.55429458618164,-918,-1194,1332,117584,2
76.59328842163086,-856,-1331,1154,117632,2
76.63330936431885,-745,-1325,1133,117649,2
76.67328119277954,-798,-1187,1292,117642,2
76.71327328681946,-863,-1299,1403,117647,2
76.75326824188232,-1006,-1297,1412,117617,2
76.79333138465881,-1118,-1319,1290,117608,2
76.8332679271698,-1115,-1299,1306,117576,2
76.87328863143921,-996,-1340,1374,117586,2
76.91329860687256,-912,-1281,1384,117612,2
76.95234274864197,-863,-1305,1300,117627,2
76.99231052398682,-856,-1467,1444,117549,2
77.03228688240051,-854,-1445,1390,117520,2
77.07228469848633,-831,-1362,1242,117557,2
77.11228775978088,-868,-1135,1201,117631,2
77.15236806869507,-1028,-1007,1165,117650,2
77.19231033325195,-1049,-1075,1234,117650,2
77.23226642608643,-1311,-1116,1214,117630,2
77.2722647190094,-1396,-1030,1197,117624,2
77.31244564056396,-1377,-1197,1203,117628,2
77.35230994224548,-1411,-1291,1181,117652,2
77.39135789871216,-1614,-1204,1288,117712,2
77.43140840530396,-1556,-1023,1388,117749,2
77.47132420539856,-1351,-930,1232,117741,2
77.51126408576965,-1164,-813,1127,117749,2
77.55124974250793,-965,-791,1112,117742,2
77.59149551391602,-981,-833,1095,117756,2
77.63127636909485,-1051,-948,1087,117760,2
77.67151927947998,-1208,-1057,1102,117740,2
77.7112786769867,-1387,-1188,1042,117703,2
77.75145697593689,-1398,-1348,958,117665,2
77.7912974357605,-1373,-1246,1108,117652,2
77.83150696754456,-1286,-1222,1185,117667,2
77.87030839920044,-1257,-1127,1227,117681,2
77.91024160385132,-1162,-1217,1203,117683,2
77.95026850700378,-1165,-1315,1053,117690,2
77.99025964736938,-1138,-1361,998,117715,2
78.03026938438416,-1185,-1346,1011,117724,2
78.07025194168091,-1222,-1333,1173,117719,2
78.11028909683228,-1294,-1345,1184,117685,2
78.15034031867981,-1306,-1298,1156,117631,2
78.19040870666504,-1311,-1255,1185,117614,2
78.230393409729,-1280,-1206,1303,117619,2
78.27025556564331,-1231,-1198,1333,117625,2
78.31035375595093,-1096,-1266,1349,117642,2
78.34925079345703,-991,-1348,1351,117669,2
78.38925170898438,-918,-1367,1368,117660,2
78.42926025390625,-828,-1365,1274,117668,2
78.46929502487183,-753,-1372,1165,117703,2
78.5092990398407,-708,-1366,1061,117703,2
78.54924488067627,-698,-1352,958,117708,2
78.58957386016846,-754,-1353,942,117700,2
78.62925243377686,-826,-1374,1057,117666,2
78.66936182975769,-865,-1392,1272,117614,2
78.70929002761841,-895,-1362,1430,117529,2
78.74930143356323,-902,-1361,1472,117555,2
78.78842258453369,-844,-1363,1356,117593,2
78.82827258110046,-808,-1393,1256,117622,2
78.86826515197754,-857,-1333,1272,117652,2
78.90829396247864,-911,-1276,1285,117686,2
78.94824504852295,-935,-1253,1255,117710,2
78.98847770690918,-978,-1259,1194,117728,2
79.0282952785492,-1010,-1275,1208,117724,2
79.06837606430054,-1054,-1287,1238,117708,2
79.10827779769897,-1095,-1267,1343,117682,2
79.14829921722412,-1091,-1290,1361,117680,2
79.18830633163452,-1037,-1312,1363,117672,2
79.22825455665588,-970,-1308,1358,117676,2
79.2672700881958,-890,-1339,1283,117624,2
79.30730032920837,-875,-1340,1275,117642,2
79.34731149673462,-846,-1367,1247,117670,2
79.38811683654785,-825,-1370,1239,117699,2
79.42736601829529,-822,-1355,1245,117724,2
79.46744799613953,-825,-1377,1291,117706,2
79.50728011131287,-825,-1348,1261,117677,2
79.54733037948608,-811,-1363,1218,117648,2
79.5873064994812,-839,-1357,1227,117636,2
79.6272644996643,-887,-1360,1239,117625,2
79.6672477722168,-929,-1297,1309,117647,2
79.70630168914795,-912,-1319,1298,117669,2
79.74627208709717,-910,-1296,1257,117687,2
79.7862982749939,-909,-1310,1291,117692,2
79.82632827758789,-889,-1337,1281,117705,2
79.86628675460815,-866,-1330,1270,117696,2
79.9062750339508,-881,-1302,1290,117646,2
79.94627070426941,-887,-1281,1307,117631,2
79.98634767532349,-888,-1272,1288,117624,2
80.02637314796448,-913,-1276,1262,117624,2
80.06625366210938,-935,-1268,1234,117608,2
80.10626173019409,-919,-1290,1199,117623,2
80.14625287055969,-917,-1311,1210,117654,2
80.185302734375,-929,-1309,1238,117661,2
80.22526335716248,-926,-1301,1242,117682,2
80.26526713371277,-936,-1266,1240,117706,2
80.30527710914612,-914,-1304,1263,117711,2
80.34529042243958,-925,-1346,1313,117724,2
80.38526058197021,-957,-1293,1373,117708,2
80.42530989646912,-976,-1234,1461,117686,2
80.46534395217896,-967,-1237,1508,117648,2
80.50527930259705,-965,-1258,1413,117555,2
80.5453040599823,-971,-1312,1281,117521,2
80.58538770675659,-998,-1329,1240,117558,2
80.62427639961243,-977,-1333,1165,117599,2
80.66431188583374,-960,-1362,1168,117630,2
80.70448970794678,-954,-1416,1229,117649,2
80.74429082870483,-1004,-1417,1231,117655,2
80.78430557250977,-997,-1438,1160,117674,2
80.82508563995361,-912,-1467,1122,117669,2
80.86438512802124,-874,-1479,1207,117657,2
80.9043710231781,-914,-1362,1198,117620,2
80.94426441192627,-887,-1280,1184,117598,2
80.98426294326782,-888,-1214,1163,117605,2
81.02440023422241,-867,-1221,1130,117612,2
81.06328582763672,-933,-1267,1035,117644,2
81.10327768325806,-990,-1283,990,117647,2
81.14329028129578,-1017,-1345,989,117658,2
81.18327522277832,-1021,-1325,1097,117679,2
81.22382998466492,-1072,-1225,1219,117628,2
81.26330471038818,-1132,-1204,1253,117574,2
81.30332708358765,-1211,-1314,1274,117580,2
81.34329843521118,-1319,-1441,1168,117558,2
81.38330268859863,-1379,-1388,1031,117557,2
81.42329597473145,-1276,-1354,937,117568,2
81.46330070495605,-1121,-1337,956,117577,2
81.50238084793091,-1012,-1386,1035,117592,2
81.54230737686157,-1054,-1425,1133,117610,2
81.58233642578125,-1130,-1418,1126,117616,2
81.62236070632935,-1182,-1382,1124,117651,2
81.6622941493988,-1189,-1333,1128,117646,2
81.70230484008789,-1124,-1313,1116,117667,2
81.74241256713867,-1097,-1314,1157,117661,2
81.78224563598633,-1106,-1306,1175,117627,2
81.82257795333862,-1126,-1346,1103,117532,2
81.86234903335571,-1191,-1396,1104,117447,2
81.90228652954102,-1250,-1369,1059,117476,2
81.9422960281372,-1208,-1318,962,117515,2
81.9813642501831,-1105,-1280,925,117529,2
82.02149176597595,-1034,-1287,934,117557,2
82.06127309799194,-963,-1347,988,117590,2
82.10213470458984,-995,-1541,985,117587,2
82.14129734039307,-1156,-1580,1080,117573,2
82.18130898475647,-1257,-1351,1212,117576,2
82.22133326530457,-1155,-1213,1341,117571,2
82.26135015487671,-928,-1208,1399,117545,2
82.30156254768372,-784,-1294,1338,117535,2
82.34134864807129,-817,-1376,1213,117540,2
82.381338596344,-1002,-1356,1155,117546,2
82.42131996154785,-1137,-1327,1153,117556,2
82.46029782295227,-1137,-1344,1259,117558,2
82.50030303001404,-1047,-1320,1325,117475,2
82.54030179977417,-969,-1319,1294,117456,2
82.58028769493103,-937,-1311,1203,117509,2
82.62030911445618,-901,-1304,1112,117532,2
82.66030097007751,-894,-1311,1083,117562,2
82.7003104686737,-923,-1324,1145,117562,2
82.74033617973328,-948,-1290,1195,117553,2
82.78031396865845,-983,-1284,1149,117528,2
82.82029747962952,-972,-1309,1133,117511,2
82.86033248901367,-982,-1269,1215,117491,2
82.9002959728241,-1016,-1247,1249,117526,2
82.93931913375854,-1020,-1251,1276,117544,2
82.97931003570557,-1042,-1233,1293,117566,2
83.0193030834198,-1039,-1246,1251,117575,2
83.05931353569031,-987,-1286,1230,117598,2
83.09929633140564,-979,-1317,1238,117595,2
83.13934087753296,-949,-1326,1232,117534,2
83.17939114570618,-940,-1331,1206,117494,2
83.21928238868713,-904,-1341,1218,117511,2
83.25982165336609,-858,-1372,1193,117506,2
83.2993369102478,-877,-1352,1202,117517,2
83.33930206298828,-915,-1341,1235,117500,2
83.37930631637573,-947,-1327,1234,117528,2
83.41929173469543,-959,-1292,1253,117533,2
83.45835614204407,-953,-1283,1266,117567,2
83.49857497215271,-964,-1271,1262,117577,2
83.53839898109436,-980,-1267,1234,117603,2
83.57844543457031,-1013,-1298,1213,117611,2
83.61832475662231,-1072,-1314,1185,117626,2
83.65865755081177,-1074,-1326,1164,117638,2
83.698326587677,-1047,-1316,1159,117635,2
83.73833155632019,-1011,-1289,1199,117551,2
83.77836275100708,-1008,-1292,1229,117515,2
83.81843852996826,-1028,-1315,1201,117519,2
83.85832405090332,-1022,-1321,1234,117552,2
83.89854454994202,-1012,-1341,1222,117587,2
83.93729853630066,-992,-1342,1232,117604,2
83.9773519039154,-970,-1331,1242,117625,2
84.01729893684387,-942,-1342,1218,117621,2
84.05733323097229,-948,-1348,1205,117654,2
84.09735536575317,-950,-1344,1178,117658,2
84.13735699653625,-966,-1337,1162,117663,2
84.17734265327454,-985,-1339,1158,117651,2
84.21733951568604,-1024,-1330,1160,117625,2
84.25743794441223,-1054,-1320,1161,117600,2
84.29734802246094,-1048,-1326,1139,117588,2
84.33735704421997,-1056,-1289,1152,117581,2
84.37738847732544,-1050,-1281,1156,117536,2
84.41630411148071,-1062,-1299,1158,117551,2
84.45633149147034,-1036,-1286,1171,117563,2
84.49638175964355,-1050,-1315,1143,117585,2
84.53634428977966,-1059,-1351,1138,117623,2
84.57637071609497,-1061,-1322,1149,117620,2
84.61632370948792,-1037,-1317,1154,117631,2
84.6563127040863,-1041,-1392,1202,117629,2
84.6963427066803,-1039,-1325,1181,117599,2
84.73633360862732,-1052,-1335,1181,117594,2
84.77633428573608,-1055,-1322,1202,117579,2
84.81634211540222,-1052,-1289,1208,117591,2
84.85632538795471,-1042,-1293,1206,117604,2
84.89531016349792,-1044,-1318,1175,117614,2
84.93530797958374,-1070,-1300,1178,117616,2
84.97535395622253,-1069,-1349,1182,117554,2
85.01532006263733,-1095,-1292,1178,117586,2
85.0553240776062,-1065,-1297,1167,117621,2
85.09538435935974,-1033,-1317,1144,117632,2
85.13532495498657,-1031,-1312,1120,117637,2
85.17537951469421,-1044,-1319,1131,117608,2
85.2153434753418,-1050,-1335,1116,117603,2
85.25531649589539,-1082,-1341,1108,117582,2
85.29559779167175,-1068,-1320,1130,117595,2
85.33541965484619,-1076,-1336,1112,117608,2
85.37433123588562,-1084,-1328,1100,117625,2
85.41438341140747,-1081,-1317,1165,117624,2
85.45434522628784,-1077,-1318,1153,117659,2
85.49436902999878,-1027,-1321,1188,117668,2
85.53429126739502,-997,-1334,1191,117684,2
85.57436966896057,-1019,-1299,1208,117648,2
85.61439394950867,-1036,-1315,1210,117591,2
85.65440440177917,-1007,-1313,1162,117548,2
85.69472146034241,-1006,-1325,1137,117561,2
85.73431634902954,-1056,-1319,1131,117563,2
85.77451086044312,-1115,-1301,1121,117582,2
85.81432628631592,-1116,-1298,1121,117591,2
85.85359525680542,-1134,-1282,1123,117610,2
85.89341807365417,-1131,-1311,1136,117612,2
85.93337082862854,-1126,-1297,1139,117634,2
85.97340965270996,-1091,-1313,1154,117637,2
86.01368188858032,-1055,-1340,1139,117651,2
86.05349111557007,-1013,-1334,1160,117637,2
86.09335041046143,-1002,-1332,1142,117634,2
86.13339829444885,-959,-1368,1143,117600,2
86.1733865737915,-969,-1366,1131,117576,2
86.21345663070679,-991,-1344,1155,117508,2
86.25420641899109,-1010,-1360,1145,117487,2
86.29335165023804,-1011,-1358,1129,117510,2
86.33238554000854,-1038,-1350,1128,117533,2
86.37239384651184,-1047,-1350,1146,117555,2
86.41234755516052,-1072,-1359,1132,117584,2
86.45239543914795,-1090,-1374,1170,117598,2
86.49265241622925,-1080,-1334,1156,117605,2
86.532381772995,-1034,-1342,1165,117615,2
86.57239580154419,-991,-1310,1196,117598,2
86.61238241195679,-948,-1311,1206,117585,2
86.65230512619019,-944,-1286,1183,117550,2
86.69232559204102,-1010,-1243,1170,117531,2
86.73237919807434,-1040,-1282,1179,117560,2
86.77233147621155,-1038,-1298,1129,117550,2
86.811350107193,-997,-1287,1114,117501,2
86.8513331413269,-1011,-1346,1141,117503,2
86.89136147499084,-1098,-1352,1145,117530,2
86.93181586265564,-1281,-1325,1154,117556,2
86.97139692306519,-1326,-1306,1229,117573,2
87.01133584976196,-1273,-1338,1171,117597,2
87.05135416984558,-1221,-1319,1142,117567,2
87.09143543243408,-1175,-1280,1067,117554,2
87.13144731521606,-1098,-1234,1018,117531,2
87.17140078544617,-1122,-1263,984,117525,2
87.21133208274841,-1150,-1222,1000,117534,2
87.25134873390198,-1154,-1212,982,117548,2
87.29056978225708,-1145,-1172,1056,117564,2
87.33038187026978,-1198,-1190,1119,117574,2
87.37034392356873,-1197,-1213,1161,117559,2
87.41036033630371,-1196,-1230,1254,117521,2
87.45037126541138,-1223,-1175,1285,117461,2
87.49036383628845,-1196,-1192,1234,117482,2
87.53035020828247,-1105,-1227,1263,117495,2
87.57036209106445,-1095,-1253,1193,117519,2
87.61037707328796,-1102,-1285,1172,117503,2
87.65127110481262,-1145,-1362,1178,117493,2
87.69040656089783,-1187,-1287,1128,117474,2
87.73095440864563,-1136,-1201,1108,117484,2
87.77037072181702,-1063,-1172,1203,117504,2
87.80937719345093,-1032,-1195,1249,117512,2
87.84934735298157,-1027,-1194,1240,117521,2
87.88937139511108,-1059,-1196,1278,117528,2
87.92943572998047,-1062,-1159,1282,117560,2
87.96933436393738,-976,-1237,1249,117572,2
88.00934767723083,-932,-1293,1250,117516,2
88.04944109916687,-969,-1294,1274,117460,2
88.08937478065491,-1042,-1289,1309,117465,2
88.1294629573822,-1078,-1235,1305,117447,2
88.16936588287354,-1017,-1217,1302,117467,2
88.24104022979736,-961,-1220,1333,117457,2
88.26827120780945,-940,-1278,1358,117473,2
88.28940963745117,-936,-1311,1338,117491,2
88.32872748374939,-924,-1316,1290,117504,2
88.368417263031,-868,-1304,1217,117506,2
88.40844440460205,-792,-1271,1229,117526,2
88.44837546348572,-784,-1270,1244,117546,2
88.4883782863617,-838,-1266,1257,117546,2
88.52842998504639,-889,-1306,1280,117563,2
88.56835579872131,-913,-1330,1280,117518,2
88.60838913917542,-917,-1288,1334,117413,2
88.64842391014099,-951,-1256,1321,117354,2
88.68840837478638,-1021,-1203,1375,117361,2
88.72840571403503,-965,-1221,1387,117357,2
88.7683596611023,-922,-1147,1544,117361,2
88.80841207504272,-979,-1084,1603,117387,2
88.84736466407776,-915,-1087,1570,117372,2
88.88739776611328,-821,-1127,1517,117381,2
88.92759013175964,-827,-1114,1446,117393,2
88.96741080284119,-773,-1131,1372,117426,2
89.00736927986145,-761,-1121,1426,117449,2
89.04734420776367,-793,-1122,1445,117460,2
89.08738970756531,-783,-1119,1506,117464,2
89.12740731239319,-831,-1128,1515,117451,2
89.16735816001892,-845,-1132,1473,117345,2
89.20738363265991,-857,-1126,1498,117242,2
89.24735403060913,-844,-1143,1461,117199,2
89.28737425804138,-890,-1119,1443,117217,2
89.32735443115234,-916,-1122,1466,117259,2
89.36635327339172,-935,-1146,1452,117289,2
89.40637278556824,-921,-1126,1473,117303,2
89.44637298583984,-930,-1139,1436,117314,2
89.48635673522949,-890,-1139,1430,117332,2
89.52669191360474,-907,-1133,1382,117358,2
89.5664267539978,-874,-1131,1465,117383,2
89.60637831687927,-924,-1140,1448,117393,2
89.64636087417603,-891,-1158,1451,117383,2
89.68640661239624,-900,-1163,1428,117351,2
89.72639060020447,-851,-1171,1427,117363,2
89.76706457138062,-878,-1173,1406,117331,2
89.80638599395752,-901,-1148,1424,117236,2
89.84535884857178,-884,-1154,1425,117197,2
89.88539433479309,-892,-1164,1423,117229,2
89.92537069320679,-911,-1170,1390,117259,2
89.96615195274353,-882,-1177,1399,117289,2
