Timestamp,AccX,AccY,AccZ,Heart_IR,Phase
0.003540515899658203,-1438,-1297,662,111852,0
0.04348134994506836,-1426,-1314,635,111935,0
0.08342504501342773,-1428,-1298,647,112012,0
0.12244534492492676,-1410,-1294,674,112071,0
0.16246914863586426,-1401,-1299,614,112114,0
0.20246362686157227,-1419,-1308,652,112136,0
0.24253082275390625,-1421,-1300,675,112163,0
0.28278446197509766,-1433,-1295,625,112192,0
0.32247400283813477,-1418,-1290,668,112221,0
0.3625152111053467,-1418,-1317,637,112127,0
0.4025108814239502,-1417,-1307,616,111108,0
0.442943811416626,-1469,-1274,681,110445,0
0.4825630187988281,-1445,-1284,645,110880,0
0.5225224494934082,-1441,-1296,617,111502,0
0.5624740123748779,-1455,-1270,688,111648,0
0.6028625965118408,-1470,-1259,689,111730,0
0.6426668167114258,-1472,-1278,695,111794,0
0.6814188957214355,-1459,-1277,720,111802,0
0.721407413482666,-1466,-1288,633,111848,0
0.761376142501831,-1442,-1288,631,111931,0
0.8013958930969238,-1450,-1276,665,112017,0
0.8418533802032471,-1455,-1292,582,112069,0
0.8818683624267578,-1438,-1291,609,112111,0
0.9214184284210205,-1445,-1274,661,112138,0
0.9613907337188721,-1426,-1288,628,112149,0
1.0013964176177979,-1482,-1239,683,112127,0
1.0415410995483398,-1501,-1208,759,112120,0
1.0814235210418701,-1486,-1200,707,112134,0
1.122004747390747,-1480,-1219,636,112137,0
1.1618645191192627,-1471,-1216,667,111730,0
1.2015810012817383,-1475,-1204,646,110854,0
1.2407841682434082,-1498,-1219,654,110996,0
1.2804033756256104,-1485,-1221,665,111552,0
1.3203911781311035,-1459,-1232,639,111785,0
1.3603875637054443,-1426,-1252,655,111872,0
1.400282859802246,-1441,-1262,655,111897,0
1.4404394626617432,-1449,-1242,684,111874,0
1.480513572692871,-1464,-1255,667,111888,0
1.5203299522399902,-1469,-1249,698,111935,0
1.560375452041626,-1490,-1249,672,111969,0
1.6003010272979736,-1481,-1246,663,112014,0
1.6618611812591553,-1486,-1241,643,112046,0
1.6901252269744873,-1489,-1265,626,112075,0
1.720782995223999,-1489,-1263,640,112107,0
1.7592642307281494,-1503,-1249,681,112132,0
1.7992167472839355,-1487,-1270,646,112177,0
1.8391876220703125,-1478,-1279,640,112202,0
1.879230260848999,-1468,-1275,653,112240,0
1.9192273616790771,-1430,-1311,618,112220,0
1.9592275619506836,-1426,-1301,595,111630,0
1.9992005825042725,-1423,-1310,630,111094,0
2.039196729660034,-1442,-1314,610,111542,0
2.079380750656128,-1434,-1318,612,111905,0
2.119291305541992,-1430,-1306,613,112004,0
2.1591973304748535,-1424,-1317,600,112043,0
2.199204683303833,-1418,-1316,615,111980,0
2.239345073699951,-1442,-1308,628,111973,0
2.279200553894043,-1438,-1312,631,112019,0
2.3182051181793213,-1446,-1312,617,112087,0
2.35827898979187,-1456,-1302,622,112146,0
2.398155927658081,-1459,-1298,624,112194,0
2.4381814002990723,-1450,-1302,613,112238,0
2.4781928062438965,-1460,-1302,602,112254,0
2.518840789794922,-1441,-1312,600,112275,0
2.558194398880005,-1428,-1315,593,112280,0
2.5981802940368652,-1445,-1314,599,112289,0
2.638226270675659,-1445,-1305,612,112269,0
2.6781623363494873,-1438,-1310,628,112273,0
2.7183055877685547,-1438,-1323,603,112146,0
2.758223295211792,-1439,-1296,630,111471,0
2.798222780227661,-1462,-1303,642,111198,0
2.8381950855255127,-1465,-1308,611,111700,0
2.87717342376709,-1452,-1312,616,111967,0
2.9180355072021484,-1425,-1308,635,112069,0
2.9572274684906006,-1438,-1323,605,112104,0
2.997171401977539,-1444,-1301,635,112115,0
3.0372331142425537,-1451,-1299,617,112108,0
3.077235221862793,-1426,-1313,595,112148,0
3.117893695831299,-1442,-1315,593,112186,0
3.1571576595306396,-1456,-1292,618,112222,0
3.1972765922546387,-1471,-1295,624,112205,0
3.2371978759765625,-1445,-1304,620,112225,0
3.2771644592285156,-1403,-1306,639,112233,0
3.3172051906585693,-1434,-1297,613,112225,0
3.3577797412872314,-1456,-1300,610,112253,0
3.3972113132476807,-1433,-1302,639,112276,0
3.436220645904541,-1410,-1336,583,112290,0
3.4761581420898438,-1421,-1306,609,111921,0
3.516270637512207,-1444,-1293,631,111345,0
3.5563526153564453,-1439,-1311,572,111664,0
3.5962159633636475,-1439,-1315,584,111993,0
3.6363277435302734,-1436,-1310,617,112128,0
3.6761722564697266,-1427,-1332,596,112161,0
3.7163119316101074,-1414,-1326,607,112153,0
3.756409168243408,-1422,-1330,615,112104,0
3.7961649894714355,-1437,-1337,607,112046,0
3.8362958431243896,-1430,-1324,619,112096,0
3.876258373260498,-1417,-1334,611,112133,0
3.9161620140075684,-1424,-1336,599,112193,0
3.9565351009368896,-1425,-1329,608,112222,0
3.9952001571655273,-1443,-1318,621,112254,0
4.035188674926758,-1454,-1323,578,112274,0
4.075273275375366,-1448,-1309,583,112303,0
4.115198850631714,-1418,-1325,622,112318,0
4.155206203460693,-1420,-1338,551,112060,0
4.195231199264526,-1445,-1303,581,111203,0
4.235217094421387,-1449,-1311,627,111206,0
4.275203704833984,-1435,-1332,581,111729,0
4.315207004547119,-1418,-1327,606,111952,0
4.355536937713623,-1412,-1330,611,112000,0
4.395209550857544,-1435,-1341,583,112018,0
4.435176372528076,-1443,-1322,629,111982,0
4.4758336544036865,-1436,-1313,628,111971,0
4.515231609344482,-1434,-1325,574,112042,0
4.555700302124023,-1439,-1323,586,112102,0
4.59418249130249,-1444,-1328,613,112164,0
4.634258985519409,-1455,-1324,591,112189,0
4.674268484115601,-1444,-1336,602,112221,0
4.714200735092163,-1439,-1336,619,112249,0
4.754398822784424,-1447,-1327,605,112268,0
4.794209718704224,-1452,-1310,649,112306,0
4.834237575531006,-1424,-1329,656,112311,0
4.874240875244141,-1408,-1330,621,112051,0
4.914194822311401,-1442,-1308,636,111301,0
4.954190969467163,-1446,-1319,636,111290,0
4.99419641494751,-1442,-1315,577,111772,0
5.034259557723999,-1418,-1311,560,111957,0
5.074223518371582,-1407,-1307,608,112030,0
5.1141743659973145,-1415,-1317,554,112089,0
5.153186321258545,-1429,-1322,582,112110,0
5.194134712219238,-1433,-1300,615,112127,0
5.233255386352539,-1426,-1310,598,112160,0
5.273159980773926,-1424,-1332,609,112215,0
5.313189268112183,-1431,-1323,634,112272,0
5.353450536727905,-1430,-1321,639,112274,0
5.393262624740601,-1423,-1325,632,112329,0
5.433154821395874,-1420,-1340,612,112336,0
5.473196506500244,-1433,-1324,612,112344,0
5.513158321380615,-1423,-1305,646,112340,0
5.553191423416138,-1412,-1350,598,112291,0
5.593317985534668,-1429,-1305,626,111870,0
5.633154392242432,-1429,-1293,632,111278,0
5.673123359680176,-1410,-1315,638,111596,0
5.7131507396698,-1431,-1373,614,111901,0
5.752134084701538,-1461,-1317,639,111978,0
5.7922139167785645,-1473,-1305,671,112010,0
5.832160711288452,-1469,-1355,645,112028,0
5.872171640396118,-1463,-1295,568,112037,0
5.912189245223999,-1411,-1224,612,112084,0
5.95220947265625,-1426,-1246,653,112142,0
5.992224216461182,-1426,-1324,604,112189,0
6.032257556915283,-1456,-1383,518,112204,0
6.0722739696502686,-1427,-1320,607,112197,0
6.11217474937439,-1382,-1349,623,112162,0
6.152132034301758,-1321,-1361,606,112167,0
6.192305088043213,-1401,-1314,608,112174,0
6.232341289520264,-1423,-1330,608,112212,0
6.272598505020142,-1426,-1344,582,112180,0
6.311507225036621,-1426,-1310,676,111662,0
6.351549863815308,-1454,-1327,660,111227,0
6.3913774490356445,-1468,-1346,635,111563,0
6.431169748306274,-1476,-1259,679,111839,0
6.471184253692627,-1479,-1239,717,111942,0
6.511184215545654,-1488,-1256,573,112007,0
6.551182508468628,-1466,-1276,653,111992,0
6.591371536254883,-1494,-1210,686,111967,0
6.63121485710144,-1475,-1260,576,111972,0
6.671172142028809,-1396,-1270,599,111985,0
6.711166858673096,-1494,-1364,575,111996,0
6.751181364059448,-1416,-1372,551,112016,0
6.791978359222412,-1393,-1313,610,112055,0
6.830223560333252,-1415,-1305,692,112079,0
6.870176315307617,-1403,-1359,616,112112,0
6.910154104232788,-1345,-1334,638,112148,0
6.950187683105469,-1411,-1307,704,112172,0
6.990240812301636,-1465,-1337,652,112166,0
7.030200481414795,-1466,-1287,686,111886,0
7.070250511169434,-1497,-1235,702,111327,0
7.110286712646484,-1472,-1313,613,111477,0
7.150195598602295,-1458,-1296,590,111798,0
7.19023585319519,-1432,-1305,620,111865,0
7.230252504348755,-1439,-1277,601,111895,0
7.270277976989746,-1405,-1346,570,111893,0
7.31024694442749,-1406,-1364,611,111831,0
7.350221157073975,-1474,-1300,675,111897,0
7.389177560806274,-1440,-1245,781,112005,0
7.429192066192627,-1384,-1289,640,112098,0
7.4691832065582275,-1374,-1362,500,112180,0
7.509181499481201,-1370,-1317,644,112215,0
7.549209833145142,-1503,-1338,699,112213,0
7.589167594909668,-1512,-1390,638,112152,0
7.629197835922241,-1447,-1173,762,112138,0
7.669255971908569,-1364,-1191,728,112118,0
7.709511995315552,-1392,-1292,585,112164,0
7.749391555786133,-1493,-1399,559,112132,0
7.789427757263184,-1521,-1342,471,111831,0
7.8296074867248535,-1496,-1224,621,111600,0
7.8692004680633545,-1438,-1276,681,111807,0
7.909184455871582,-1354,-1378,642,111982,0
7.9481728076934814,-1378,-1307,725,112033,0
7.988526105880737,-1434,-1285,719,112074,0
8.028237342834473,-1423,-1334,684,112077,0
8.068188428878784,-1386,-1342,694,112080,0
8.1082181930542,-1380,-1312,645,112118,0
8.148184776306152,-1422,-1293,631,112162,0
8.188239336013794,-1455,-1268,675,112218,0
8.22868537902832,-1463,-1262,638,112230,0
8.268283367156982,-1483,-1265,577,112238,0
8.308188438415527,-1455,-1267,646,112233,0
8.348219394683838,-1472,-1264,652,112223,0
8.388198614120483,-1469,-1278,631,112223,0
8.42857575416565,-1450,-1292,681,112222,0
8.468193292617798,-1445,-1317,682,112095,0
8.508223295211792,-1430,-1285,665,111637,0
8.54727554321289,-1411,-1269,712,111533,0
8.587247133255005,-1432,-1284,634,111861,0
8.627166271209717,-1424,-1299,607,111998,0
8.667212963104248,-1462,-1308,689,112063,0
8.707193613052368,-1528,-1429,606,112057,0
8.747209548950195,-1634,-1336,733,112030,0
8.787328481674194,-1647,-1061,685,111980,0
8.827190637588501,-1570,-1018,679,111949,0
8.867202520370483,-1818,-1060,834,111959,0
8.907501935958862,-1960,-1193,636,112011,0
8.947168588638306,-2011,-1222,845,112081,0
8.987212896347046,-1887,-1080,903,112096,0
9.02719759941101,-1857,-1047,586,112118,0
9.067304134368896,-1639,-1053,526,112147,0
9.106208086013794,-1474,-931,551,112202,0
9.146259069442749,-1511,-853,560,112231,0
9.186169147491455,-1533,-743,607,111928,0
9.226849794387817,-1449,-729,542,111739,0
9.266251802444458,-1327,-750,450,111996,0
9.306975364685059,-1491,-739,459,112121,0
9.346325635910034,-1496,-732,488,112157,0
9.38655686378479,-1623,-723,522,112166,0
9.426429033279419,-1613,-776,549,112148,0
9.46973204612732,-1604,-803,610,112104,0
9.50658130645752,-1700,-809,752,112117,0
9.54618215560913,-1663,-809,839,112123,0
9.586216926574707,-1694,-865,864,112169,0
9.626209497451782,-1765,-897,781,112180,0
9.665222883224487,-1649,-915,793,112220,0
9.705400705337524,-1608,-935,794,112222,0
9.745261907577515,-1766,-1014,783,112238,0
9.785227060317993,-1833,-1081,814,112268,0
9.825213193893433,-1804,-1164,800,112293,0
9.86531949043274,-1972,-1046,918,112052,0
9.905275106430054,-1876,-1051,941,111318,0
9.94523024559021,-1785,-1122,859,111296,0
9.985257387161255,-1942,-1048,823,111721,0
10.025230169296265,-1855,-946,897,111884,0
10.065899133682251,-1737,-938,763,111921,0
10.105218648910522,-1628,-977,652,111943,0
10.145204067230225,-1575,-982,619,111939,0
10.185205221176147,-1573,-952,646,111951,0
10.225206136703491,-1635,-951,801,111980,0
10.265323877334595,-1728,-979,815,111991,0
10.304254293441772,-1664,-937,835,112017,0
10.344204425811768,-1523,-958,692,112074,0
10.384256601333618,-1431,-1051,596,112126,0
10.424270153045654,-1443,-723,797,112176,0
10.464263916015625,-1367,-622,1061,112254,0
10.504247665405273,-1249,-1078,1019,112262,0
10.544272661209106,-1174,-1289,922,112047,0
10.584365606307983,-1207,-1234,850,111806,0
10.624242067337036,-1158,-1127,979,111868,0
10.664305925369263,-1086,-1048,1361,112018,0
10.704578638076782,-1108,-1074,1373,112091,0
10.744239807128906,-1201,-1249,1137,112134,0
10.784478902816772,-1291,-1271,1034,112145,0
10.823215007781982,-1332,-1236,1049,112107,0
10.863493919372559,-1326,-1263,1113,112078,0
10.903227090835571,-1390,-1277,1173,112098,0
10.943428993225098,-1456,-1216,1086,112131,0
10.98325514793396,-1504,-1185,945,112143,0
11.023231267929077,-1527,-1159,984,112163,0
11.063244104385376,-1543,-1160,970,112197,0
11.103231191635132,-1635,-1102,1042,112196,0
11.143221139907837,-1584,-1086,1058,112201,0
11.183245182037354,-1586,-1026,985,111989,0
11.22325849533081,-1586,-1016,982,111722,0
11.263272523880005,-1525,-962,918,111857,0
11.30337119102478,-1405,-852,933,111992,0
11.343227863311768,-1320,-864,958,112095,0
11.38327956199646,-1278,-881,996,112154,0
11.422245979309082,-1279,-840,996,112194,0
11.46225643157959,-1264,-858,1025,112209,0
11.50291919708252,-1342,-847,1193,112195,0
11.542706489562988,-1493,-1152,1186,112208,0
11.582258701324463,-1644,-1022,1137,112239,0
11.62221884727478,-1750,-1026,960,112313,0
11.66225290298462,-1621,-975,810,112382,0
11.70295786857605,-1528,-1048,900,112439,0
11.742215633392334,-1455,-1198,836,112489,0
11.78228235244751,-1480,-1160,853,112484,0
11.822267532348633,-1432,-1036,880,112412,0
11.862279176712036,-1382,-1031,774,112099,0
11.902465343475342,-1477,-1073,773,111940,0
11.942477464675903,-1644,-1081,855,112066,0
11.982234239578247,-1681,-1015,824,112169,0
12.021217107772827,-1718,-974,723,112216,0
12.061426401138306,-1651,-1015,666,112231,0
12.101416826248169,-1694,-1186,586,112231,0
12.141256093978882,-1780,-1217,496,112221,0
12.181286096572876,-1687,-1086,543,112179,0
12.221222877502441,-1694,-932,621,112035,0
12.261417865753174,-1661,-879,606,112042,0
12.30126953125,-1593,-959,591,112205,0
12.341311693191528,-1621,-1202,536,112306,0
12.381239414215088,-1606,-1237,486,112356,0
12.421267747879028,-1533,-1112,563,112136,0
12.461256504058838,-1546,-1057,624,111222,0
12.501225233078003,-1660,-1112,589,111057,0
12.541255235671997,-1611,-1095,632,111575,0
12.58029842376709,-1536,-1071,684,111829,0
12.620270490646362,-1542,-1090,726,111905,0
12.660242795944214,-1550,-1096,656,111952,0
12.700523614883423,-1533,-1030,620,111932,0
12.740274667739868,-1587,-965,733,111946,0
12.780255556106567,-1597,-978,718,111972,0
12.820293188095093,-1630,-1002,720,112035,0
12.86026120185852,-1687,-1005,851,112073,0
12.900260925292969,-1679,-1022,797,112108,0
12.940272092819214,-1717,-1017,711,112105,0
12.980244398117065,-1766,-972,771,112110,0
13.02084469795227,-1751,-975,767,112059,0
13.060272693634033,-1832,-950,843,111523,0
13.100226163864136,-1862,-917,950,110915,0
13.140426635742188,-1922,-864,952,111237,0
13.179226160049438,-1958,-824,982,111636,0
13.219278335571289,-2090,-794,1026,111772,0
13.259231567382812,-2087,-1075,970,111817,0
13.299254894256592,-1957,-734,993,111888,0
13.33928108215332,-1867,-465,999,111940,0
13.379224300384521,-1666,-480,866,112029,0
13.419248580932617,-1627,-462,880,112106,0
13.459250688552856,-1490,-630,695,112159,0
13.4995698928833,-1352,-820,519,112186,0
13.539400815963745,-1314,-899,501,112172,0
13.579244613647461,-1358,-772,477,112189,0
13.619262218475342,-1415,-512,600,112214,0
13.659270524978638,-1365,-391,769,112144,0
13.699473857879639,-1340,-302,972,111805,0
13.738460540771484,-1439,-437,789,111832,0
13.77823781967163,-1617,-902,642,111955,0
13.818821907043457,-1977,-558,919,112040,0
13.858264684677124,-2043,-407,1073,112102,0
13.898281574249268,-1922,-596,1047,112141,0
13.938289880752563,-1897,-735,1042,112087,0
13.978557586669922,-1845,-815,959,112074,0
14.018256664276123,-1802,-713,917,112092,0
14.058244943618774,-1874,-646,921,112112,0
14.098246574401855,-1919,-671,1018,112118,0
14.138288497924805,-1897,-707,1086,112115,0
14.178786277770996,-1978,-702,972,112125,0
14.218238115310669,-1978,-730,923,112115,0
14.258251190185547,-1967,-741,980,111725,0
14.29831314086914,-1935,-748,1004,110862,0
14.337249040603638,-1913,-750,892,111005,0
14.377226829528809,-1830,-753,834,111562,0
14.417260646820068,-1808,-762,785,111754,0
14.45725679397583,-1740,-726,862,111870,0
14.497295379638672,-1797,-654,855,111955,0
14.537292242050171,-1738,-584,825,111996,0
14.577252626419067,-1823,-469,873,112005,0
14.617262601852417,-1777,-397,855,111993,0
14.65729308128357,-1802,-303,731,111987,0
14.697261571884155,-1814,-244,752,111979,0
14.737502813339233,-1809,-237,654,111928,0
14.777291059494019,-2112,-283,821,111931,0
14.8173348903656,-2292,-312,1024,111881,0
14.857240200042725,-2463,-329,956,111728,0
14.897246599197388,-2397,-227,884,111485,0
14.936236143112183,-2733,37,589,111506,0
14.976293563842773,-2681,310,917,111613,0
15.016332149505615,-2300,554,290,111664,1
15.056291341781616,-1838,891,280,111778,1
15.09625244140625,-1498,1333,508,112028,1
15.13627815246582,-1258,1816,692,111996,1
15.176448583602905,-1092,2017,765,112079,1
15.216321229934692,42,2132,87,114078,1
15.256296634674072,-942,4228,366,115034,1
15.297134637832642,357,4963,-745,114873,1
15.336287498474121,1813,3857,-726,114455,1
15.376242399215698,2133,948,-606,115102,1
15.416326761245728,-597,-14200,879,115149,1
15.456286907196045,-12928,-3719,6425,113629,1
15.496280908584595,-899,-6508,3301,114646,1
15.535300493240356,-2233,-1309,458,114199,1
15.57542610168457,1441,2048,570,113961,1
15.615243911743164,264,7512,1116,115068,1
15.65531301498413,-1960,9717,1584,116414,1
15.695265769958496,1337,4265,-207,114100,1
15.735305070877075,319,-2454,-1269,115062,1
15.775352478027344,-5212,-10860,454,114696,1
15.815361976623535,-9756,-1394,7175,115053,1
15.85524320602417,411,-7692,794,114951,1
15.895275115966797,-493,-1164,1306,114445,1
15.935292720794678,2608,3036,935,114410,1
15.975253343582153,-105,11598,-244,114908,1
16.015241146087646,967,8636,1325,114419,1
16.05532431602478,3232,4760,-2300,113978,1
16.0952889919281,1175,-1350,-464,114882,1
16.134342670440674,-2185,-16014,-1466,115526,1
16.17434310913086,-9082,-1310,11837,113939,1
16.214263916015625,727,-9335,535,115231,1
16.25436544418335,-1012,-1345,1906,114984,1
16.294327974319458,3072,2205,1134,114236,1
16.334258317947388,-17,8756,983,113931,1
16.374309539794922,-665,9802,3151,113325,1
16.414300441741943,1034,5133,-2331,113213,1
16.454269886016846,866,2270,-1559,113160,1
16.494320392608643,-1351,-11156,-3605,113228,1
16.5343599319458,-3263,-6693,15836,112921,1
16.57429265975952,-2868,-6438,1403,112651,1
16.6151123046875,1063,-4324,1284,112978,1
16.65429997444153,1169,-872,1590,113598,1
16.694284439086914,2254,2710,854,114414,1
16.734315872192383,271,5211,3655,115096,1
16.77333402633667,-515,6544,2248,115175,1
16.813315391540527,74,6582,1659,115152,1
16.853301525115967,1117,5131,-1394,114558,1
16.893322467803955,2592,1780,-3829,114681,1
16.933361530303955,-291,-16632,-1234,114785,1
16.973344802856445,-7581,-2553,13421,114975,1
17.013490438461304,-959,-7006,2981,115689,1
17.053313732147217,-385,-4698,2415,115152,1
17.093340635299683,290,-1195,1363,115315,1
17.13329029083252,534,2506,-44,115518,1
17.173307418823242,557,4356,2180,115540,1
17.21348762512207,-967,9390,627,115401,1
17.253291606903076,507,8578,-1591,115404,1
17.293314218521118,2249,5910,-3676,114699,1
17.333348751068115,2444,-3500,-1613,114790,1
17.37234902381897,-5106,-19078,3393,114652,1
17.412317514419556,-10790,3464,9279,115339,1
17.452386379241943,1262,-8327,1002,115858,1
17.492295026779175,-520,-3692,1545,115907,1
17.532305479049683,1641,-742,215,116179,1
17.57226586341858,579,3197,3291,116127,1
17.612324714660645,624,5499,2780,115992,1
17.65236783027649,102,7611,941,115905,1
17.692276000976562,1780,8593,1258,116351,1
17.732489347457886,2098,5372,-1750,115725,1
17.772294998168945,3190,-2187,141,117436,1
17.812293529510498,-5870,-19552,1839,117124,1
17.852275371551514,-9843,863,5887,116167,1
17.892284393310547,1926,-9638,3470,116369,1
17.9324049949646,-1339,-2590,1535,116611,1
17.971333742141724,1659,1817,1113,116863,1
18.01128888130188,-1032,5720,1990,116866,1
18.05128502845764,-768,9033,2302,116743,1
18.091296672821045,1858,8426,-1610,116665,1
18.131311655044556,4507,4451,-1717,116353,1
18.17126703262329,1807,213,344,116237,1
18.211326837539673,-2096,-21821,-1957,116915,1
18.251624584197998,-10743,1523,11046,115860,1
18.291322231292725,-252,-11999,3329,116514,1
18.3312828540802,-1225,-4147,388,116645,1
18.371293783187866,1400,234,2091,117018,1
18.41142225265503,1091,3107,730,117049,1
18.45210599899292,1202,7060,2350,116974,1
18.491263389587402,2071,7830,106,116905,1
18.531333923339844,2899,6375,-753,116815,1
18.570314645767212,3873,3150,-2251,116678,1
18.610723733901978,995,-2208,-1485,116821,1
18.65084171295166,-3370,-21004,-1086,116590,1
18.690484762191772,-11670,275,11961,116272,1
18.730698347091675,476,-14258,1355,117069,1
18.770314693450928,-1112,-3152,1797,116983,1
18.81029462814331,2320,-172,1299,117321,1
18.85070252418518,-1673,6080,792,117452,1
18.89035940170288,-312,7051,2744,117433,1
18.93034029006958,556,6371,-408,117337,1
18.97031569480896,3321,5151,-664,117260,1
19.01029634475708,4798,4207,-2176,117089,1
19.05034065246582,2626,-3197,-2217,117027,1
19.090384006500244,-7415,-19960,-894,116577,1
19.130313873291016,-11088,4246,11857,116903,1
19.16931700706482,1338,-10718,-1895,117726,1
19.209278345108032,304,-3539,996,117417,1
19.249579668045044,732,-260,2313,117187,1
19.2893168926239,1011,3676,1853,117249,1
19.329277276992798,1873,5240,3865,117303,1
19.369320392608643,1371,8800,1994,116862,1
19.40929102897644,3642,7634,-90,116760,1
19.44958233833313,3942,3419,-1053,117074,1
19.48933482170105,-149,-6166,-4018,116798,1
19.529707670211792,-8253,-19125,6178,116113,1
19.56932306289673,-11506,2447,7230,116799,1
19.609362840652466,2297,-9649,-2052,117492,1
19.649353742599487,-1850,-296,2144,117503,1
19.689379692077637,2676,2534,-447,117514,1
19.729329586029053,250,8543,1275,117394,1
19.769394636154175,1160,9855,1941,117382,1
19.80836033821106,4496,4841,-1605,117229,1
19.848291635513306,3222,1178,-2620,116784,1
19.888339281082153,-1785,-10297,-761,116879,1
19.928341388702393,-9414,-10829,8640,116874,1
19.968420028686523,-7390,-5788,6739,117257,1
20.008357763290405,409,-5298,-1320,117475,1
20.048311948776245,1218,821,3205,117657,1
20.088439226150513,1887,5540,896,117412,1
20.128305435180664,-419,9125,3497,117327,1
20.16830325126648,1241,7871,1438,117307,1
20.208351612091064,4513,2820,-5372,116812,1
20.248355865478516,162,-1840,-2684,116364,1
20.28852677345276,-6578,-22001,-1463,116368,1
20.32832431793213,-10162,2650,13877,116648,1
20.368489027023315,2094,-10617,-6946,116977,1
20.407349348068237,-2143,482,3166,117302,1
20.447328567504883,2577,3677,1981,117168,1
20.4877347946167,-151,8237,3048,117010,1
20.527305841445923,-419,7803,4073,116908,1
20.567322254180908,3798,4208,-1645,116678,1
20.607354402542114,3125,1201,-2733,116573,1
20.647347927093506,1067,-7209,-370,116619,1
20.687392711639404,-7736,-16282,6324,117259,1
20.7282817363739,-11732,1501,8854,116582,1
20.767333507537842,2540,-9654,-2029,116658,1
20.807363271713257,-721,-963,1184,116765,1
20.847373485565186,2545,2078,466,116817,1
20.887593984603882,475,6613,1433,116870,1
20.927391290664673,20,9449,413,117548,1
20.967354774475098,2596,7038,-1066,117695,1
21.006326913833618,4592,2583,-463,117335,1
21.04630947113037,865,-4740,-1433,117143,1
21.086488246917725,-5117,-19185,-27,117449,1
21.12636089324951,-10727,4232,10211,117141,1
21.16657829284668,820,-11167,635,117044,1
21.20640540122986,-227,-2597,894,117376,1
21.246350288391113,1946,2527,1718,117306,1
21.286317348480225,95,7164,650,117189,1
21.326311349868774,-142,10986,3026,117044,1
21.36633610725403,2040,6356,2526,116821,1
21.40661334991455,3834,462,-4254,116054,1
21.446359634399414,-2990,-14696,-2624,115959,1
21.486331462860107,-7342,-9176,12137,117097,1
21.526508331298828,-7402,-3263,4463,117330,1
21.566323041915894,621,-6852,540,117372,1
21.606351852416992,-17,-728,951,117238,1
21.645375967025757,1344,3710,1821,117096,1
21.68534231185913,-46,7680,1995,117054,1
21.725361108779907,869,7250,2330,117185,1
21.76535987854004,1966,5635,-823,116831,1
21.805344104766846,4507,2704,-2675,116374,1
21.845409631729126,950,-2266,-1426,116362,1
21.885464906692505,-3376,-16266,-3016,116331,1
21.925463438034058,-9613,-2095,12792,115941,1
21.9653639793396,-3374,-9307,3208,115110,1
22.005352020263672,-724,-4322,-364,115315,1
22.04531478881836,1651,-361,992,115806,1
22.085330486297607,1594,5578,1261,115832,1
22.12539792060852,-1002,10972,3333,115860,1
22.165348768234253,1478,6054,-474,115800,1
22.205545902252197,3266,3361,-2170,115335,1
22.2444007396698,1374,-1776,-1526,115330,1
22.284756422042847,-4006,-16410,-2271,115061,1
22.324466466903687,-6697,245,15022,115098,1
22.36438822746277,-2178,-8620,253,115357,1
22.404391765594482,-1075,-3950,2067,115675,1
22.44437074661255,1790,-524,1514,116043,1
22.48605227470398,1122,5624,1607,116056,1
22.524860382080078,-49,9694,3325,115895,1
22.56432795524597,2568,5622,368,115662,1
22.604358434677124,3120,2620,-3282,115379,1
22.644357204437256,-169,-4572,-2996,116493,1
22.6843843460083,-6365,-14997,-700,116381,1
22.724354028701782,-7927,1175,12048,116342,1
22.764477014541626,1040,-9614,-3369,116823,1
22.804500579833984,-1850,-1739,4217,117158,1
22.843387842178345,1405,2128,1835,116860,1
22.883665561676025,-327,6991,4567,116398,1
22.92367148399353,762,8459,4670,116362,1
22.96529531478882,4640,3647,-2401,116133,1
23.00367784500122,3409,1625,-4185,115876,1
23.043391704559326,497,-9250,-4281,116406,1
23.08341097831726,-5944,-14537,8291,115229,1
23.12364387512207,-6805,-1223,5562,115549,1
23.163317918777466,-957,-4929,323,116405,1
23.204474210739136,-136,-2277,5028,117050,1
23.24339509010315,1132,3337,1973,117270,1
23.283881902694702,852,6283,4229,116765,1
23.323608875274658,-800,7280,4350,116359,1
23.364009380340576,1161,3766,165,116394,1
23.403422117233276,3601,2327,-2923,115930,1
23.44235348701477,1248,-7018,-5214,115373,1
23.48238205909729,-7037,-13664,5871,116786,1
23.52237319946289,-7450,2344,10624,116497,1
23.562745094299316,-1583,-5788,-1325,116758,1
23.60237455368042,-1520,-2895,4035,117302,1
23.6423499584198,2130,-887,1555,117484,1
23.682454109191895,1552,5090,2373,117211,1
23.722346305847168,-358,9221,2842,116979,1
23.762529611587524,1083,5587,1471,116748,1
23.802380084991455,3694,2490,-2508,116282,1
23.84261703491211,1482,-2781,-4322,115494,1
23.882403135299683,-5065,-13770,25,116151,1
23.92236018180847,-7344,1292,14209,116559,1
23.96283984184265,-111,-8635,-2389,116938,1
24.002370834350586,-785,-2646,2822,117544,1
24.04135537147522,2356,1365,1480,117462,1
24.081378936767578,813,7533,1622,117016,1
24.121354341506958,-949,9894,3066,117006,1
24.16159152984619,3661,3411,-1795,116802,1
24.20134663581848,2667,952,-3756,116569,1
24.24140691757202,-485,-5408,-1110,116556,1
24.281368494033813,-8090,-11198,5088,117191,1
24.32145619392395,-7115,-3200,9672,117362,1
24.36153244972229,-376,-5518,-1554,117615,1
24.401347875595093,80,60,1139,117807,1
24.441395044326782,3423,5266,1716,117512,1
24.48155164718628,432,10394,3177,117483,1
24.521332263946533,2717,5000,2413,117243,1
24.561363458633423,3926,1150,-2524,116735,1
24.601382732391357,-1023,-5900,-2906,116228,1
24.640371322631836,-8502,-11737,4246,116485,1
24.680360555648804,-7158,-404,9868,116408,1
24.72038745880127,499,-6555,-1981,116879,1
24.760345697402954,-932,-844,2475,117345,1
24.800336599349976,3041,3310,727,117275,1
24.840556383132935,-775,9187,2626,117183,1
24.880377292633057,-66,6325,4127,116904,1
24.92054295539856,2491,2900,-1517,116482,1
24.960439443588257,2473,1016,-2648,116357,1
25.000397205352783,-390,-4760,-1789,115854,1
25.040369749069214,-5038,-10730,3412,116026,1
25.080368757247925,-7499,2527,9402,116140,1
25.120445728302002,-558,-6820,50,116845,1
25.160402297973633,-1028,-2541,1803,117218,1
25.199328899383545,1996,640,1295,117466,1
25.239362478256226,922,5836,1356,117329,1
25.27950119972229,266,10069,1551,117271,1
25.31966471672058,2924,6247,1618,117074,1
25.359360218048096,3552,1827,-1519,116446,1
25.399529218673706,-1535,-7841,-2748,115926,1
25.439996004104614,-7197,-11259,5098,115936,1
25.479472160339355,-7166,-517,8646,116380,1
25.519371032714844,937,-7850,-1179,117229,1
25.559685707092285,-1744,-1511,1889,117421,1
25.5997052192688,2120,2824,543,117200,1
25.639407634735107,-622,8001,1899,116816,1
25.679433345794678,-817,8063,3390,117408,1
25.719523906707764,681,4627,936,117863,1
25.75931477546692,2872,2697,-679,117673,1
25.798900365829468,2760,-1346,584,117304,1
25.8386492729187,-2020,-15072,-1734,117184,1
25.878808975219727,-12100,-1586,10334,115605,1
25.918378591537476,-1282,-9896,3607,117174,1
25.958549737930298,-1352,-2850,788,117510,1
25.999077320098877,1145,382,747,117549,1
26.03863215446472,766,7284,726,117289,1
26.07840347290039,-2258,10181,2128,117398,1
26.11836552619934,1294,4672,-375,117581,1
26.158380031585693,2295,1734,-1579,117153,1
26.19841480255127,47,-2444,-700,116849,1
26.238537073135376,-4850,-11612,-1109,116633,1
26.278644800186157,-7504,-1089,13138,116449,1
26.318434715270996,-706,-7442,-1438,117264,1
26.359134912490845,-1428,-1931,2364,117305,1
26.39748501777649,1632,1719,1453,117294,1
26.437350034713745,217,6742,1423,117131,1
26.477379083633423,-95,8695,2031,117033,1
26.51836347579956,2360,4990,-292,116909,1
26.558234453201294,3059,1502,-1970,116967,1
26.597865343093872,-969,-5311,-959,117296,1
26.637407541275024,-4979,-13996,3476,117923,1
26.67830467224121,-6220,963,10162,117808,1
26.718005895614624,-1545,-5438,-708,117787,1
26.757586240768433,-1167,-2852,3044,117811,1
26.797362565994263,933,86,1684,117682,1
26.837668657302856,216,3528,1754,117573,1
26.878483772277832,-286,6473,1870,117580,1
26.917339086532593,-29,7428,875,117482,1
26.956875562667847,3112,4932,-1198,117253,1
26.99636483192444,2967,1109,-1956,116876,1
27.037193298339844,-529,-7651,597,116890,1
27.076905727386475,-6650,-11956,6303,117941,1
27.116375207901,-8734,754,6035,118033,1
27.15713405609131,-590,-6934,1852,117937,1
27.19637942314148,-1051,-3629,1512,117841,1
27.23679518699646,1669,-101,716,117590,1
27.27635169029236,856,4570,1941,117347,1
27.31641387939453,794,8673,1240,117143,1
27.35642409324646,3190,7727,1790,117088,1
27.39713716506958,3734,4533,-222,116814,1
27.4364070892334,2425,275,-1406,116258,1
27.477008819580078,-2145,-16872,-2583,116074,1
27.516401767730713,-11475,-3150,9594,115822,1
27.556459188461304,-2037,-5408,4847,115782,1
27.595446586608887,-2089,-4323,2468,115900,1
27.636021375656128,265,-3535,1738,116145,1
27.67544198036194,543,1442,2353,116242,1
27.715362310409546,672,3499,1341,116289,1
27.755998849868774,-359,7594,1433,116273,1
27.795562028884888,-2154,9766,1830,116203,1
27.835431337356567,3948,4229,-2595,116087,1
27.87538170814514,4515,810,-371,116054,1
27.91648244857788,-1335,-16340,-2181,116431,1
27.955848455429077,-8640,-5179,15433,116142,1
27.99586796760559,-4970,-3077,2857,116763,1
28.035369873046875,25,-5547,1985,116199,1
28.075394868850708,-768,-2664,1472,115713,1
28.115344524383545,-98,-97,761,115856,1
28.15437150001526,1051,3818,1229,116003,1
28.19438362121582,35,8410,1282,116039,1
28.234371185302734,719,9604,-857,116593,1
28.274660110473633,4287,3813,-2539,116402,1
28.314398288726807,1211,-409,-15,115931,1
28.354598999023438,-1880,-12306,121,115942,1
28.3944411277771,-7870,-4859,12705,115323,1
28.43440008163452,-1531,-7448,904,116009,1
28.474417686462402,-1279,-3385,2848,115999,1
28.51439642906189,1185,275,219,116277,1
28.555229663848877,788,5162,310,116136,1
28.5943922996521,-199,10570,602,116289,1
28.63439702987671,1473,7057,-2387,116813,1
28.674691200256348,2359,2441,-562,116625,1
28.71439528465271,-434,-6295,-257,116578,1
28.75340986251831,-6212,-13393,6204,115583,1
28.7934250831604,-6842,-728,11048,116267,1
28.833417892456055,-235,-5962,-1250,116523,1
28.87377953529358,-546,-2447,3561,116505,1
28.913381814956665,1566,1420,168,116071,1
28.954084396362305,1016,5565,1761,115618,1
28.993556022644043,144,8273,-858,115516,1
29.033453464508057,2080,6283,-4242,115630,1
29.073612689971924,2393,2876,-974,115331,1
29.114295482635498,-314,-2461,867,115326,1
29.153592109680176,-2423,-9563,1822,115416,1
29.193411111831665,-5099,-2595,11269,115130,1
29.233444929122925,-4646,-5130,1184,115771,1
29.27341604232788,-2248,-5119,4276,115926,1
29.313377857208252,14,-1875,804,116031,1
29.35237956047058,2608,3160,-220,116053,1
29.392640590667725,2578,7105,479,116017,1
29.43239188194275,555,9620,-1823,115957,1
29.472420692443848,1561,5484,-2509,115906,1
29.51242446899414,2095,2668,-1488,115611,1
29.55242657661438,1204,-5375,-546,115447,1
29.59262204170227,-7537,-15079,2958,115125,1
29.63245463371277,-8202,1938,12266,114930,1
29.672691345214844,-2233,-7165,-588,115639,1
29.712408542633057,-1439,-3193,2064,115909,1
29.752578020095825,1775,98,655,116092,1
29.79241132736206,2206,4547,1857,116008,1
29.833178520202637,1369,7755,1522,115935,1
29.872769117355347,-402,8124,712,115914,1
29.911588191986084,2659,4612,-1419,115879,1
29.951403379440308,3782,416,-2706,115495,1
29.9914493560791,-1407,-10049,-635,115312,1
30.03162980079651,-5845,-14871,9583,115471,1
30.071484088897705,-9515,4657,8651,114745,1
30.111534118652344,1979,-8244,-675,115117,1
30.151582956314087,-1524,-3289,2382,115799,1
30.191538095474243,371,-593,952,116177,1
30.231417894363403,2622,3197,1750,116302,1
30.272146701812744,109,7895,1949,116132,1
30.31205916404724,-1563,9510,3022,115943,1
30.351584672927856,3204,4239,-2834,115479,1
30.391449213027954,4516,-1502,-5797,115076,1
30.431438446044922,-4682,-13809,334,115003,1
30.47159194946289,-5197,-8786,14036,114553,1
30.510451078414917,-7693,-3337,4786,114193,1
30.550691843032837,2519,-6816,-832,115188,1
30.59066081047058,-353,-415,2156,115795,1
30.63047170639038,2376,3471,-140,116039,1
30.670915842056274,1328,7073,3357,116267,1
30.71100687980652,383,8728,4342,116084,1
30.751163244247437,2716,4612,-1137,115533,1
30.79039978981018,3102,140,-3162,115352,1
30.83043360710144,-763,-14249,-730,115331,1
30.870452880859375,-7332,-10509,11232,114209,1
30.910472869873047,-8133,559,5615,113297,1
30.95045518875122,514,-7791,1097,113640,1
30.99040699005127,-990,-3744,1744,114149,1
31.030433654785156,1761,189,1123,114731,1
31.069404363632202,1248,6636,1586,115100,1
31.10964345932007,-1849,10640,2097,115071,1
31.149590730667114,1616,5094,-1736,115464,1
31.18958306312561,3050,2191,-3885,115358,1
31.229416370391846,667,-1522,-1728,114861,1
31.26959776878357,-2787,-11375,-936,115413,1
31.309606790542603,-5662,-6249,14078,114495,1
31.349525213241577,-5551,-7868,3620,115218,1
31.389431715011597,-2123,-4376,965,115268,1
31.42953848838806,707,-628,470,115715,1
31.46957778930664,2780,3747,-1422,115653,1
31.50941824913025,1859,8673,3152,115337,1
31.549588441848755,2548,6776,4753,115123,1
31.589845895767212,3121,4107,1060,114546,1
31.628586292266846,1926,655,-1960,113904,1
31.668618202209473,-277,-6791,-2119,114121,1
31.708608865737915,-10970,-12194,3290,115428,1
31.748600959777832,-7766,-275,11905,114826,1
31.788591623306274,-672,-7438,-2642,114701,1
31.828445196151733,-746,-2320,2107,114794,1
31.86854839324951,3319,338,436,114997,1
31.908421754837036,2227,6877,1021,115316,1
31.949440479278564,-183,8922,2984,115366,1
31.98842740058899,1741,4540,336,115189,1
32.02855443954468,2045,826,-3516,115189,1
32.06847095489502,-736,-2970,-1506,115429,1
32.108574867248535,-8108,-9952,306,116517,1
32.149232149124146,-7412,-3104,9741,115166,1
32.188586473464966,-1779,-8396,1243,115150,1
32.227431535720825,-1616,-3486,1408,115334,1
32.267534017562866,1315,-853,1258,115595,1
32.322951555252075,2526,4695,36,115687,1
32.355940103530884,1021,9902,1808,115827,1
32.38756561279297,2325,6000,1066,115913,1
32.4275586605072,3850,3552,-2375,116028,1
32.46754479408264,2480,-613,-1702,116380,1
32.50747489929199,-1570,-11656,-2188,116898,1
32.547765254974365,-8979,-11111,9162,115855,1
32.58742713928223,-10181,1532,2090,116675,1
32.62743401527405,-1707,-6383,2928,116768,1
32.667569637298584,-1537,-3725,831,116720,1
32.70753741264343,1499,-940,614,116627,1
32.747602462768555,965,4523,2497,116407,1
32.787548542022705,-182,8135,2079,116113,1
32.826420307159424,-37,6690,2659,116063,1
32.86644911766052,1399,3254,-1063,115987,1
32.90658378601074,1872,1461,-1905,115893,1
32.94654631614685,750,-5893,-600,116338,1
32.9864387512207,-5380,-11027,2008,117099,1
33.026535511016846,-6923,2154,8799,117225,1
33.066462993621826,-2071,-6381,97,117470,1
33.10660099983215,-2306,-3130,2004,117382,1
33.146567583084106,1034,-422,25,117370,1
33.1865758895874,2193,4097,1741,117166,1
33.226616621017456,-652,9018,1889,117079,1
33.266531467437744,-77,7284,2910,116997,1
33.30654764175415,2208,4062,-44,116695,1
33.346556186676025,2723,148,-2983,116452,1
33.38545346260071,-1357,-9683,-407,116621,1
33.42545795440674,-6318,-9374,10652,116325,1
33.46545124053955,-7728,-1605,3810,116984,1
33.505462408065796,-222,-5425,1409,117374,1
33.545604944229126,-1505,-1657,1708,117444,1
33.58559012413025,1689,1308,393,117287,1
33.62543296813965,1076,5663,1793,117124,1
33.66558861732483,-1093,9542,-656,117020,1
33.705549478530884,316,6206,-222,117035,1
33.74554991722107,3565,3246,-497,116867,1
33.78544616699219,2693,-496,-889,116626,1
33.825520038604736,-957,-10658,-3,116476,1
33.86554288864136,-7809,-8262,9165,115610,1
33.905548095703125,-7344,-3468,4940,116197,1
33.94556641578674,-2336,-4894,1254,116481,1
33.98457074165344,-644,-2043,1293,116684,1
34.02453136444092,1582,1419,710,116607,1
34.0644314289093,1348,5674,1374,116500,1
34.10452198982239,-1445,9809,444,116456,1
34.14451622962952,899,5381,-109,116398,1
34.18543028831482,2909,2365,-1105,116509,1
34.22454762458801,693,-2830,42,117543,1
34.26444745063782,-2962,-12434,896,118286,1
34.30454182624817,-7097,844,11350,117423,1
34.34455633163452,-745,-8228,-614,116626,1
34.384594440460205,-2550,-3390,2828,116300,1
34.424535274505615,313,-1477,366,116519,1
34.46451115608215,2694,2297,627,116690,1
34.504557847976685,214,6530,1483,116639,1
34.54354906082153,-791,8747,-1826,116529,1
34.58382177352905,1745,4457,-1844,116520,1
34.62342190742493,2787,1692,-258,116357,1
34.66342639923096,656,-3677,992,116471,1
34.70353555679321,-5459,-12702,2104,116695,1
34.743541955947876,-7019,2363,10966,116406,1
34.783549785614014,-884,-7792,662,116575,1
34.824313163757324,-1956,-2859,2537,116540,1
34.863603353500366,457,-981,-178,116649,1
34.90350914001465,2086,2832,699,116649,1
34.94351053237915,481,6458,912,116487,1
34.98354172706604,-1760,7761,-366,116395,1
35.023504972457886,499,4172,-1612,116418,1
35.063549280166626,2816,1029,-1354,116351,1
35.1035270690918,-186,-2072,343,115980,1
35.14246964454651,-1749,-8646,1143,116264,1
35.18255925178528,-5077,-2812,9572,116265,1
35.2225501537323,-6425,-3077,2991,116136,1
35.262537240982056,-2415,-5485,2595,116342,1
35.30253744125366,681,-3318,1302,116587,1
35.34252095222473,2954,1815,523,116967,1
35.38252234458923,2367,6357,1286,117061,1
35.422539472579956,-2127,9606,936,116864,1
35.46253561973572,1235,4346,-2093,116623,1
35.50255370140076,4946,803,-3636,116407,1
35.542553663253784,1864,-5395,-2177,116220,1
35.582566022872925,-4334,-14113,6334,116512,1
35.623021841049194,-6967,1788,10910,116144,1
35.66252613067627,-840,-5714,-494,116427,1
35.70157504081726,-1126,-2811,2808,116701,1
35.741573095321655,232,484,244,116895,1
35.781538248062134,533,4918,372,117025,1
35.821532249450684,-1495,9291,789,116941,1
35.86158609390259,-752,6124,726,116866,1
35.90152382850647,3372,2262,-1029,116724,1
35.94150948524475,997,-315,-575,116380,1
35.98157453536987,-2645,-14082,-1445,116297,1
36.021788597106934,-7751,-3474,11437,116441,1
36.061540365219116,-1167,-9185,4114,116503,1
36.10153150558472,-1542,-2531,663,116773,1
36.14151740074158,2258,-28,1758,116994,1
36.18149995803833,2165,4812,475,116986,1
36.22155213356018,-1390,8896,303,116907,1
36.2606635093689,-749,5226,-717,116911,1
36.30052661895752,2560,1346,-1564,116872,1
36.34052896499634,-7,-1877,-252,116439,1
36.38076663017273,-3379,-11560,-1327,116521,1
36.42140483856201,-8306,-1626,11085,115905,1
36.460575580596924,-3481,-7134,4116,116245,1
36.500529766082764,-1560,-3978,464,116405,1
36.54052948951721,192,-2256,1182,116736,1
36.58051776885986,1724,771,79,116954,1
36.62091112136841,1115,4125,1652,116963,1
36.660547733306885,-590,6762,423,116861,1
36.70053434371948,-948,5704,-428,116820,1
36.740537881851196,1546,3148,-194,116829,1
36.780537605285645,935,659,-223,116485,1
36.82004928588867,226,-5557,-599,116118,1
36.85982608795166,-6607,-12791,1437,115970,1
36.89963126182556,-6840,2542,10802,115897,1
36.93957185745239,-3205,-5257,-46,116395,1
36.97955131530762,-1788,-5087,1915,116458,1
37.019551515579224,-1372,-3555,593,116575,1
37.05950117111206,105,516,566,116794,1
37.09955143928528,2541,3216,1349,116834,1
37.139525175094604,653,6392,-350,116652,1
37.17953395843506,-684,7337,-751,116545,1
37.219505071640015,1763,3730,-757,116625,1
37.2595100402832,3945,937,50,116629,1
37.29953122138977,2209,-5657,1566,115794,1
37.3395779132843,-8584,-16186,-3431,116061,1
37.37854838371277,-8367,3123,10172,114979,1
37.418572664260864,-4322,-6458,4593,115329,1
37.458590030670166,-2656,-5052,-1056,115379,1
37.49851942062378,-916,-1986,396,115627,1
37.538533210754395,2038,1224,-133,115884,1
37.578524351119995,1535,7102,-155,115805,1
37.618597745895386,-3372,9316,-1703,115416,1
37.659125089645386,914,3635,-3051,115635,1
37.698513984680176,2255,237,560,115541,1
37.73855233192444,-1329,-3805,304,115248,1
37.778547525405884,-6926,-8564,2869,116651,1
37.81857204437256,-4259,-1872,12848,116878,1
37.85854625701904,-1765,-7358,-1085,116122,1
37.89854025840759,-1054,-2159,906,116596,1
37.93749976158142,1626,905,551,116620,1
37.97762441635132,1656,5504,-433,116555,1
38.01749920845032,-1473,9979,645,116235,1
38.05767750740051,516,6709,-2950,116058,1
38.097532510757446,3927,1981,-2391,116129,1
38.137502908706665,55,-2528,250,115477,1
38.17755389213562,-6893,-19635,-161,115315,1
38.21771955490112,-9850,5340,13338,115199,1
38.25752592086792,-1902,-8163,-2,115657,1
38.29755926132202,-659,-4791,1196,115995,1
38.337520599365234,290,-1211,2210,116302,1
38.377535343170166,2113,1537,242,116383,1
38.41752886772156,1503,5317,1917,116451,1
38.45753455162048,-1855,8453,1195,116131,1
38.49657201766968,-1353,6388,-1244,115786,1
38.536540508270264,2456,2514,-1828,115335,1
38.57653188705444,676,-2542,-147,114802,1
38.61653923988342,-4117,-13620,553,115649,1
38.65766096115112,-4485,-1693,14806,115607,1
38.69654631614685,-2074,-8280,269,115506,1
38.73653244972229,-2884,-3448,1268,115829,1
38.77654218673706,1120,-391,1333,116263,1
38.81654763221741,2849,3811,718,116384,1
38.85653853416443,2411,8536,285,116245,1
38.89654517173767,1531,5539,-132,116157,1
38.93662691116333,3940,1431,-1005,115968,1
38.97653841972351,277,-2470,-528,115305,1
39.01656198501587,-3950,-11203,548,115807,1
39.0555636882782,-5314,-2379,10571,116358,1
39.095531702041626,-4814,-5539,5063,116206,1
39.1355414390564,-567,-5451,1332,116344,1
39.17554950714111,-401,-2160,1230,116609,1
39.21550250053406,1165,663,284,116870,1
39.25550961494446,1615,3666,672,116973,1
39.29579472541809,894,6738,745,116755,1
39.33548665046692,551,7342,-201,116581,1
39.37594676017761,3220,3183,-2633,116268,1
39.415558099746704,649,-423,-1553,115681,1
39.45553731918335,-2376,-11696,1026,116091,1
39.495750427246094,-3612,-9996,13119,116013,1
39.5355703830719,-6111,-5201,6767,116595,1
39.57554221153259,762,-5231,-226,116981,1
39.614521741867065,657,-1886,2193,117187,1
39.65457487106323,1787,1798,209,117214,1
39.69494915008545,1049,5731,1557,117054,1
39.7345609664917,-1506,8438,3031,116903,1
39.774505376815796,-283,4579,1168,116417,1
39.814544916152954,2380,798,-1726,116066,1
39.85453796386719,180,-2561,-2169,115953,1
39.8949556350708,-2940,-11901,-88,116680,1
39.93454909324646,-1549,-864,14296,117039,1
39.9746515750885,-698,-6477,1789,116983,1
40.01454758644104,-1009,-3541,1692,116972,1
40.054523944854736,336,-2331,2217,116896,1
40.09472465515137,-786,1146,1513,116938,1
40.13454794883728,392,4657,1155,116902,1
40.173593521118164,435,7548,264,116931,1
40.21358370780945,-939,6149,-30,116865,1
40.2536187171936,283,3161,-1593,116877,1
40.29355525970459,2236,-689,-1067,116675,1
40.333672523498535,-1460,-8943,-352,116496,1
40.37363362312317,-8913,-8569,9890,116743,1
40.41362237930298,-7971,-922,8205,116890,1
40.45419120788574,-2751,-6545,-185,117048,1
40.493762493133545,93,-3645,1604,117057,1
40.53364014625549,693,127,1259,117094,1
40.573646783828735,1785,1667,1080,117110,1
40.61387777328491,2239,4578,1195,117042,1
40.653565883636475,-359,6361,948,117015,1
40.69364356994629,-509,6094,1268,116923,1
40.73267602920532,1622,2549,-1023,116518,1
40.772632360458374,577,-5655,-1342,115757,1
40.81271696090698,-6690,-13117,-1103,115835,1
40.85269379615784,-5633,1571,14500,115949,1
40.89263558387756,-2775,-6610,411,116542,1
40.932656049728394,-638,-5407,2184,116642,1
40.97268486022949,527,-2022,1594,116866,1
41.012763261795044,1879,1693,1765,116860,1
41.05261445045471,1796,3989,423,116764,1
41.092668771743774,-558,8230,724,116757,1
41.132646322250366,-2665,7864,442,116729,1
41.17269039154053,1562,4214,-529,116676,1
41.21273183822632,1945,1402,-198,116488,1
41.25268578529358,-273,-9343,-1552,116244,1
41.29165244102478,-6641,-11467,8211,115948,1
41.33159923553467,-7856,999,8188,116528,1
41.37166476249695,-1381,-6740,1779,116886,1
41.41160321235657,-162,-4689,1962,117215,1
41.45177459716797,-369,-312,649,117295,1
41.49160075187683,1374,1865,683,117320,1
41.53176403045654,1029,5147,1319,117227,1
41.571776151657104,-464,8556,669,117088,1
41.611595153808594,-2602,9065,344,117042,1
41.65163516998291,1045,4684,-1892,117071,1
41.691628217697144,3154,1427,610,116800,1
41.73164749145508,1695,-7276,1909,116380,1
41.77164816856384,-7692,-14646,6002,116407,1
41.810672760009766,-10542,1944,8029,116631,1
41.85066843032837,1561,-8697,1767,116961,1
41.89061665534973,138,-3381,1562,117178,1
41.93107724189758,852,-4,240,117356,1
41.97064924240112,1747,2119,1244,117348,1
42.010698080062866,1356,4253,1033,117344,1
42.05072546005249,-963,6321,2379,117351,1
42.090646743774414,-3576,7040,2452,117304,1
42.13062238693237,-1094,4131,-1024,117126,1
42.170610666275024,790,3548,-1098,117147,1
42.21059846878052,2832,1587,-687,117164,1
42.25075912475586,623,-3243,1124,116966,1
42.29070234298706,-4804,-16099,2692,117018,1
42.330679178237915,-9892,4950,7628,116732,1
42.36968803405762,-917,-8649,4886,117412,1
42.409661531448364,117,-5725,1872,117492,1
42.44963312149048,520,-1945,332,117607,1
42.48975110054016,1472,1334,829,117586,1
42.53005051612854,1782,3755,1196,117521,1
42.569761753082275,503,6311,1312,117458,1
42.60966944694519,-1519,7836,2645,117375,1
42.64957332611084,756,4510,-556,117112,1
42.68966269493103,3999,2527,-1512,116865,1
42.7297043800354,2511,-658,-77,116677,1
42.76977324485779,-2132,-13426,662,116893,1
42.809715270996094,-6938,-3780,12052,116892,1
42.84961438179016,-5282,-3826,1827,117731,1
42.88863825798035,-130,-5893,4098,117657,1
42.928611516952515,-11,-2998,1256,117646,1
42.968693017959595,1768,728,710,117469,1
43.00859546661377,1895,5571,795,117265,1
43.04859757423401,927,9881,-979,117187,1
43.0886754989624,1119,6470,-1254,117229,1
43.128599643707275,4490,2554,-1910,116998,1
43.16866660118103,1448,-2532,559,116714,1
43.20873761177063,-1225,-9753,2970,117082,1
43.2487268447876,-4027,-2981,11101,116882,1
43.28868389129639,-4430,-4344,-176,117183,1
43.32865905761719,-621,-4804,4934,116866,1
43.36903667449951,410,-2737,1858,116789,1
43.40860724449158,740,58,1566,116789,1
43.447577238082886,1755,2003,1911,116781,1
43.48755407333374,447,4366,433,116636,1
43.527854204177856,-1090,6807,299,116492,1
43.56781506538391,-1504,5440,-2933,116558,1
43.607645750045776,541,3544,-572,116759,1
43.64768028259277,1993,1698,2799,116809,1
43.687644958496094,1337,-6325,352,116852,1
43.72765278816223,-8805,-13331,4210,116581,1
43.76821541786194,-9034,1365,8527,116643,1
43.80763387680054,-604,-5916,1245,117153,1
43.84764838218689,56,-2822,1777,117340,1
43.887595653533936,1114,23,916,117329,1
43.92761731147766,2002,2774,1340,117179,1
43.966919898986816,981,6294,921,117131,1
44.006595611572266,-942,6656,755,117129,1
44.046647787094116,533,3557,-249,117144,1
44.08659791946411,1964,1403,-762,116948,1
44.12707853317261,598,-2246,222,116715,1
44.16695165634155,-1911,-7939,1169,116871,1
44.206674575805664,-6203,-3174,9380,117030,1
44.24674940109253,-4192,-3421,3651,117188,1
44.2865936756134,-787,-2995,1033,117264,1
44.32664680480957,-53,-1497,1471,117470,1
44.3665931224823,226,35,625,117527,1
44.40664458274841,-164,1838,1862,117477,1
44.446600675582886,833,3817,1409,117354,1
44.48659062385559,-766,5486,682,117295,1
44.52558970451355,-1058,4312,447,117328,1
44.5656681060791,1340,1798,-1161,117292,1
44.605676889419556,2299,-2286,-967,117196,1
44.64560890197754,-2361,-6155,715,117124,1
44.68574929237366,-4908,-6082,3629,117343,1
44.72558617591858,-2819,307,4852,117139,1
44.76560115814209,-1943,-1012,1044,117208,1
44.80569887161255,-1291,-1598,663,117182,1
44.845641136169434,-446,-1684,255,117046,1
44.88560199737549,-611,-1195,920,117022,1
44.92561984062195,-611,-1063,2026,117168,1
44.965590476989746,-790,-980,1764,117194,1
45.005743741989136,-1141,-1068,2431,117217,2
45.045671701431274,-1304,-1107,2456,117248,2
45.084659576416016,-1019,-1245,2102,117376,2
45.124666929244995,-987,-1203,2340,117463,2
45.16462302207947,-756,-1246,2377,117498,2
45.2046685218811,-1152,-1277,1708,117524,2
45.24462938308716,-1527,-1200,1469,117524,2
45.28460693359375,-1661,-1177,1489,117559,2
45.32467579841614,-1491,-1151,1490,117647,2
45.36466574668884,-1288,-1214,1402,117704,2
45.405534505844116,-1195,-1247,1200,117665,2
45.44461274147034,-1239,-1204,989,117122,2
45.48468470573425,-1322,-1132,1062,116530,2
45.52462697029114,-1310,-1208,960,116481,2
45.56465291976929,-1492,-1164,711,116641,2
45.604703187942505,-1486,-1153,738,116848,2
45.64359736442566,-1461,-1158,783,117063,2
45.6836473941803,-1318,-1307,791,117213,2
45.723649978637695,-1256,-1257,910,117295,2
45.76361560821533,-1272,-1148,910,117381,2
45.80455660820007,-1280,-1150,839,117445,2
45.84366321563721,-1343,-1205,767,117486,2
45.883811473846436,-1356,-1221,773,117541,2
45.92363905906677,-1353,-1178,831,117543,2
45.96425151824951,-1441,-1131,812,117549,2
46.00363612174988,-1405,-1144,829,117490,2
46.043598890304565,-1426,-1174,734,117365,2
46.0836124420166,-1399,-1199,726,117234,2
46.123640298843384,-1470,-1170,770,117269,2
46.16362404823303,-1478,-1187,675,117412,2
46.203150033950806,-1489,-1245,628,117516,2
46.24267292022705,-1539,-1271,658,117560,2
46.28263282775879,-1611,-1268,691,117568,2
46.32265257835388,-1628,-1267,653,117581,2
46.36265969276428,-1691,-1237,656,117554,2
46.402607679367065,-1592,-1276,576,117577,2
46.44260263442993,-1535,-1311,594,117637,2
46.4826443195343,-1529,-1272,688,117662,2
46.52265644073486,-1530,-1242,767,117679,2
46.562623023986816,-1469,-1334,661,117680,2
46.60260272026062,-1433,-1384,556,117692,2
46.642900705337524,-1389,-1368,580,117524,2
46.682623863220215,-1363,-1360,587,116976,2
46.722723722457886,-1330,-1401,516,116875,2
46.761622190475464,-1266,-1451,570,117197,2
46.80177712440491,-1362,-1384,554,117429,2
46.84160351753235,-1390,-1350,582,117544,2
46.88158297538757,-1381,-1378,608,117621,2
46.921597480773926,-1440,-1392,627,117665,2
46.96164131164551,-1433,-1394,629,117685,2
47.001609325408936,-1378,-1398,522,117719,2
47.041757106781006,-1376,-1349,587,117743,2
47.081594944000244,-1364,-1375,580,117752,2
47.121618032455444,-1347,-1447,551,117746,2
47.16164565086365,-1460,-1427,629,117739,2
47.20179533958435,-1496,-1392,689,117784,2
47.24174904823303,-1456,-1408,760,117660,2
47.280654191970825,-1532,-1483,768,117053,2
47.32062315940857,-1635,-1470,660,116751,2
47.3606379032135,-1604,-1245,737,116969,2
47.400639295578,-1400,-1039,836,117358,2
47.44078731536865,-1292,-1016,775,117584,2
47.480618476867676,-1191,-1251,792,117680,2
47.520649671554565,-1116,-1393,751,117734,2
47.5606005191803,-1259,-1476,622,117782,2
47.60060906410217,-1339,-1516,732,117786,2
47.64071583747864,-1499,-1528,846,117758,2
47.68071365356445,-1439,-1395,833,117777,2
47.72059226036072,-1252,-1200,955,117781,2
47.76060199737549,-1138,-1164,951,117849,2
47.800626039505005,-1035,-1237,899,117894,2
47.84028434753418,-1096,-1345,860,117924,2
47.8796021938324,-1226,-1383,806,117753,2
47.91960620880127,-1325,-1377,881,117501,2
47.959599018096924,-1429,-1397,848,117519,2
47.9996063709259,-1389,-1350,898,117620,2
48.03960084915161,-1298,-1331,965,117711,2
48.07967138290405,-1216,-1321,849,117756,2
48.119579792022705,-1205,-1301,767,117766,2
48.159595012664795,-1249,-1325,770,117746,2
48.199652910232544,-1324,-1311,752,117730,2
48.239850759506226,-1365,-1292,731,117708,2
48.279654026031494,-1453,-1288,759,117733,2
48.31961226463318,-1467,-1275,788,117764,2
48.35869073867798,-1469,-1274,763,117768,2
48.39864206314087,-1456,-1250,767,117805,2
48.43882632255554,-1372,-1288,768,117795,2
48.478612422943115,-1316,-1328,757,117551,2
48.51922154426575,-1298,-1323,727,117042,2
48.55861783027649,-1325,-1333,786,117008,2
48.598644971847534,-1335,-1363,783,117275,2
48.63873529434204,-1336,-1350,788,117431,2
48.678701639175415,-1334,-1348,840,117476,2
48.7188880443573,-1332,-1366,776,117495,2
48.75861859321594,-1326,-1382,762,117466,2
48.79868006706238,-1305,-1377,758,117484,2
48.83863687515259,-1295,-1370,729,117518,2
48.87760806083679,-1312,-1378,681,117564,2
48.91762709617615,-1296,-1380,766,117557,2
48.95759892463684,-1332,-1370,729,117587,2
48.99762749671936,-1342,-1351,700,117621,2
49.037601947784424,-1318,-1374,717,117601,2
49.07766842842102,-1333,-1355,697,117243,2
49.117661476135254,-1345,-1346,718,116768,2
49.1576030254364,-1347,-1354,724,116915,2
49.197652101516724,-1360,-1363,677,117174,2
49.23758673667908,-1370,-1365,680,117277,2
49.27869248390198,-1358,-1350,749,117326,2
49.317596673965454,-1342,-1363,690,117340,2
49.357661962509155,-1350,-1362,720,117361,2
49.39764714241028,-1353,-1354,730,117374,2
49.43665313720703,-1357,-1350,692,117419,2
49.476808309555054,-1361,-1342,736,117461,2
49.51663112640381,-1360,-1333,799,117491,2
49.55663299560547,-1353,-1322,816,117513,2
49.59661364555359,-1363,-1332,803,117547,2
49.63664245605469,-1362,-1360,763,117531,2
49.67682194709778,-1350,-1355,773,117039,2
49.71661186218262,-1352,-1346,776,116444,2
49.756625175476074,-1346,-1361,718,116547,2
49.79664349555969,-1331,-1349,690,116867,2
49.83666205406189,-1311,-1359,656,117104,2
49.87664794921875,-1325,-1367,644,117209,2
49.916666746139526,-1359,-1349,649,117271,2
49.95566487312317,-1361,-1338,667,117284,2
49.995622873306274,-1356,-1367,607,117305,2
50.035637855529785,-1368,-1301,739,117329,2
50.07595610618591,-1406,-1262,882,117364,2
50.11568999290466,-1383,-1312,877,117408,2
50.15570616722107,-1443,-1298,963,117450,2
50.1956467628479,-1446,-1302,880,117486,2
50.23564291000366,-1375,-1346,848,117462,2
50.27560806274414,-1306,-1398,830,117057,2
50.3156635761261,-1296,-1412,794,116369,2
50.35562229156494,-1262,-1390,849,116449,2
50.39566493034363,-1288,-1389,800,116804,2
50.435657262802124,-1260,-1407,770,117054,2
50.475669622421265,-1233,-1352,731,117169,2
50.51463198661804,-1206,-1317,752,117239,2
50.55463266372681,-1120,-1343,774,117257,2
50.594643354415894,-1228,-1310,665,117313,2
50.634653091430664,-1262,-1262,773,117370,2
50.67489147186279,-1250,-1281,849,117410,2
50.71463322639465,-1328,-1286,844,117450,2
50.754618644714355,-1276,-1309,935,117494,2
50.795485496520996,-1282,-1261,917,117515,2
50.834662199020386,-1333,-1255,899,117473,2
50.874671459198,-1303,-1301,902,117244,2
50.91485571861267,-1361,-1312,911,116605,2
50.954705476760864,-1366,-1308,959,116555,2
50.99465465545654,-1374,-1294,845,116900,2
51.03364014625549,-1325,-1302,825,117132,2
51.07362675666809,-1368,-1345,833,117219,2
51.11367702484131,-1413,-1368,788,117250,2
51.15371060371399,-1419,-1324,807,117261,2
51.193747758865356,-1389,-1313,758,117286,2
51.23361802101135,-1358,-1328,691,117340,2
51.2737398147583,-1326,-1346,711,117340,2
51.314051389694214,-1359,-1335,633,117340,2
51.353636741638184,-1381,-1279,665,117317,2
51.39367175102234,-1405,-1294,670,117279,2
51.43361854553223,-1455,-1328,677,117167,2
51.47364902496338,-1492,-1351,667,116144,2
51.514079570770264,-1479,-1321,620,115211,2
51.55269980430603,-1530,-1310,643,115028,2
51.592631101608276,-1497,-1309,596,115212,2
51.63264298439026,-1451,-1276,592,115458,2
51.67262649536133,-1395,-1288,585,115762,2
51.71336102485657,-1336,-1297,497,115981,2
51.752620697021484,-1424,-1315,546,115999,2
51.79901337623596,-1394,-1356,521,116079,2
51.833547592163086,-1435,-1374,448,116136,2
51.87265992164612,-1503,-1348,468,116163,2
51.91301226615906,-1462,-1416,482,116133,2
51.9526252746582,-1486,-1389,492,116181,2
51.992669343948364,-1458,-1340,496,116225,2
52.032670736312866,-1484,-1391,427,116224,2
52.07263779640198,-1422,-1371,495,115407,2
52.1116623878479,-1430,-1355,469,114378,2
52.15169668197632,-1391,-1384,384,114157,2
52.19164490699768,-1390,-1402,420,114262,2
52.23164367675781,-1388,-1423,345,114506,2
52.27169609069824,-1362,-1398,328,114800,2
52.311660051345825,-1368,-1417,319,114957,2
52.35167908668518,-1379,-1542,432,114862,2
52.39168071746826,-1422,-1541,474,114772,2
52.43165349960327,-1485,-1536,429,114732,2
52.4716432094574,-1452,-1521,509,114751,2
52.51165461540222,-1477,-1508,477,114820,2
52.55168342590332,-1431,-1469,405,114939,2
52.59163522720337,-1368,-1432,452,115104,2
52.630688428878784,-1315,-1434,435,115272,2
52.670679569244385,-1387,-1607,257,114968,2
52.71065831184387,-1510,-1643,191,113869,2
52.75062823295593,-1536,-1378,250,113537,2
52.790639877319336,-1438,-1197,413,113873,2
52.83066987991333,-1321,-1293,478,114398,2
52.8706431388855,-1283,-1435,461,114818,2
52.91072058677673,-1324,-1421,484,114966,2
52.9508101940155,-1384,-1370,483,114973,2
52.99067735671997,-1399,-1368,411,114970,2
53.03064775466919,-1463,-1363,487,114997,2
53.07069134712219,-1496,-1376,612,115030,2
53.11067485809326,-1441,-1376,666,115158,2
53.150739431381226,-1403,-1395,620,115255,2
53.189624071121216,-1393,-1402,681,115365,2
53.22963905334473,-1331,-1432,684,115449,2
53.269631147384644,-1337,-1408,675,114983,2
53.30964136123657,-1313,-1454,691,113814,2
53.3505961894989,-1340,-1463,659,113462,2
53.38965058326721,-1337,-1442,683,113632,2
53.42963981628418,-1286,-1428,683,113927,2
53.469781160354614,-1257,-1459,661,114313,2
53.50965738296509,-1263,-1447,632,114505,2
53.549713373184204,-1257,-1428,592,114508,2
53.58967041969299,-1247,-1390,621,114512,2
53.629658222198486,-1266,-1378,563,114643,2
53.669644594192505,-1367,-1377,524,114808,2
53.70866632461548,-1338,-1360,766,114894,2
53.74877858161926,-1323,-1388,701,115016,2
53.78879523277283,-1300,-1370,690,115186,2
53.82870841026306,-1317,-1334,703,115222,2
53.86864876747131,-1331,-1346,731,114203,2
53.90864896774292,-1337,-1349,768,113452,2
53.94867825508118,-1360,-1339,756,113463,2
53.98871612548828,-1398,-1349,741,113645,2
54.02867388725281,-1369,-1337,712,113867,2
54.068663120269775,-1364,-1371,663,114066,2
54.10867619514465,-1376,-1371,683,114055,2
54.14876866340637,-1333,-1386,706,114057,2
54.188931703567505,-1309,-1344,675,114157,2
54.228649854660034,-1301,-1419,638,114377,2
54.26769256591797,-1283,-1407,632,114589,2
54.30768585205078,-1284,-1397,651,114785,2
54.34776163101196,-1309,-1418,640,115023,2
54.38765478134155,-1341,-1393,663,115211,2
54.42766809463501,-1342,-1450,624,114687,2
54.46769976615906,-1321,-1456,623,113615,2
54.50765681266785,-1318,-1471,628,113395,2
54.54766798019409,-1311,-1461,636,113611,2
54.587658643722534,-1319,-1455,606,113984,2
54.62766742706299,-1325,-1485,605,114311,2
54.667651414871216,-1338,-1470,620,114505,2
54.70766830444336,-1354,-1449,606,114480,2
54.74772667884827,-1408,-1460,662,114494,2
54.78796124458313,-1363,-1472,613,114623,2
54.82674527168274,-1294,-1494,519,114811,2
54.866671562194824,-1248,-1445,479,115018,2
54.9067177772522,-1257,-1404,525,115174,2
54.946728467941284,-1294,-1397,485,115320,2
54.98669672012329,-1289,-1394,484,115344,2
55.02673149108887,-1284,-1406,502,114282,2
55.066691160202026,-1363,-1538,471,113330,2
55.106709003448486,-1479,-1573,507,113209,2
55.146666526794434,-1563,-1464,540,113332,2
55.1876106262207,-1542,-1384,464,113538,2
55.22675323486328,-1452,-1343,455,113827,2
55.26664757728577,-1382,-1381,502,113965,2
55.306727170944214,-1319,-1424,564,113970,2
55.346787214279175,-1380,-1485,625,113998,2
55.38642644882202,-1466,-1585,598,114081,2
55.42566394805908,-1545,-1565,552,114130,2
55.46568942070007,-1490,-1354,589,114283,2
55.505699634552,-1318,-1286,671,114521,2
55.5457079410553,-1168,-1310,829,114709,2
55.585692167282104,-1121,-1268,861,114249,2
55.626378774642944,-1122,-1203,862,113241,2
55.6664137840271,-1209,-1392,694,113085,2
55.705674171447754,-1280,-1523,627,113237,2
55.74567151069641,-1385,-1496,658,113398,2
55.78575158119202,-1366,-1578,668,113657,2
55.82565879821777,-1350,-1452,713,113861,2
55.86573314666748,-1223,-1264,811,113971,2
55.90570044517517,-1086,-1293,782,114238,2
55.94478440284729,-1116,-1402,662,114518,2
55.98468470573425,-1277,-1488,698,114633,2
56.02468276023865,-1365,-1360,828,114648,2
56.0648832321167,-1350,-1161,905,114805,2
56.10468125343323,-1289,-1311,674,115055,2
56.144673109054565,-1300,-1515,588,115077,2
56.18468141555786,-1325,-1509,646,113972,2
56.22469472885132,-1353,-1371,696,113055,2
56.2653329372406,-1350,-1350,783,113044,2
56.304707527160645,-1295,-1404,838,113243,2
56.3447163105011,-1242,-1452,742,113517,2
56.38471078872681,-1227,-1424,701,113805,2
56.424697399139404,-1267,-1396,782,113963,2
56.46467041969299,-1316,-1417,768,113992,2
56.50391983985901,-1317,-1416,753,114061,2
56.54368209838867,-1322,-1391,723,114240,2
56.58366131782532,-1345,-1371,700,114471,2
56.623849391937256,-1368,-1352,722,114669,2
56.66369414329529,-1367,-1371,689,114823,2
56.70366954803467,-1342,-1396,663,114971,2
56.74378824234009,-1338,-1360,682,115099,2
56.78370213508606,-1353,-1366,660,115133,2
56.8243305683136,-1339,-1382,687,114057,2
56.86369276046753,-1347,-1361,747,113070,2
56.90369892120361,-1358,-1373,741,113065,2
56.943732261657715,-1352,-1383,712,113351,2
56.98372268676758,-1318,-1402,693,113725,2
57.023808002471924,-1302,-1405,688,114159,2
57.06269454956055,-1322,-1393,669,114364,2
57.10269570350647,-1351,-1390,671,114395,2
57.142742395401,-1357,-1376,717,114436,2
57.182697057724,-1356,-1390,710,114579,2
57.22318243980408,-1323,-1394,725,114774,2
57.26270008087158,-1302,-1391,728,115000,2
57.30273485183716,-1322,-1396,700,115168,2
57.34274959564209,-1313,-1377,679,115289,2
57.382747411727905,-1330,-1406,678,115365,2
57.422812700271606,-1339,-1395,692,114940,2
57.462714195251465,-1322,-1388,681,113589,2
57.50273323059082,-1316,-1383,659,113185,2
57.542707204818726,-1314,-1376,680,113377,2
57.58169674873352,-1313,-1364,659,113653,2
57.622506856918335,-1334,-1350,656,113911,2
57.66172552108765,-1329,-1352,669,114116,2
57.701706647872925,-1337,-1320,679,114138,2
57.74172067642212,-1389,-1354,612,114161,2
57.781737089157104,-1372,-1387,687,114214,2
57.82171869277954,-1393,-1366,734,114301,2
57.86173152923584,-1393,-1361,717,114480,2
57.90170931816101,-1359,-1379,685,114697,2
57.941691398620605,-1343,-1365,687,114830,2
57.98172330856323,-1330,-1380,689,114963,2
58.02171778678894,-1338,-1409,649,114233,2
58.061707973480225,-1359,-1423,680,113006,2
58.10215091705322,-1367,-1389,703,112793,2
58.140746116638184,-1330,-1399,696,112924,2
58.180752754211426,-1319,-1405,661,113072,2
58.220701456069946,-1308,-1409,646,113208,2
58.260719299316406,-1327,-1395,639,113350,2
58.30079007148743,-1331,-1387,673,113388,2
58.340749740600586,-1355,-1396,646,113437,2
58.380698442459106,-1352,-1385,640,113526,2
58.42098093032837,-1354,-1382,667,113607,2
58.461013317108154,-1372,-1384,646,113634,2
58.50073313713074,-1353,-1412,665,113645,2
58.540706634521484,-1358,-1369,724,113695,2
58.580705881118774,-1343,-1382,708,113806,2
58.62083601951599,-1352,-1391,646,114012,2
58.66091060638428,-1336,-1394,645,113818,2
58.699862480163574,-1337,-1387,683,112913,2
58.73971104621887,-1355,-1399,624,112637,2
58.77972364425659,-1365,-1380,679,112756,2
58.819761514663696,-1343,-1385,707,112974,2
58.85977816581726,-1325,-1386,683,113273,2
58.89969325065613,-1312,-1399,660,113700,2
58.93983340263367,-1317,-1382,706,114061,2
58.979758977890015,-1326,-1400,669,114293,2
59.01968765258789,-1338,-1383,643,114458,2
59.060325384140015,-1329,-1373,708,114622,2
59.099709272384644,-1341,-1369,691,114855,2
59.13971948623657,-1352,-1373,681,114992,2
59.17969107627869,-1346,-1363,712,115165,2
59.21969962120056,-1352,-1369,698,115306,2
59.25892758369446,-1356,-1347,707,115419,2
59.298717975616455,-1336,-1373,707,115500,2
59.338711977005005,-1325,-1375,674,115092,2
59.378727436065674,-1334,-1367,716,113927,2
59.41882824897766,-1349,-1358,716,113617,2
59.45902609825134,-1326,-1366,706,113981,2
59.49943017959595,-1315,-1368,692,114446,2
59.53884935379028,-1333,-1380,697,114833,2
59.57873868942261,-1343,-1349,686,115030,2
59.61872577667236,-1347,-1350,688,115059,2
59.65881323814392,-1322,-1357,701,115125,2
59.69873237609863,-1348,-1378,683,115185,2
59.738739252090454,-1357,-1355,737,115291,2
59.77874493598938,-1363,-1351,769,115390,2
59.81771397590637,-1345,-1358,745,115466,2
59.857717514038086,-1349,-1357,745,115528,2
59.89771389961243,-1337,-1328,738,115581,2
59.937724113464355,-1330,-1372,683,115602,2
59.97775888442993,-1343,-1366,700,115081,2
60.017696380615234,-1371,-1346,722,114401,2
60.057758808135986,-1376,-1348,734,114669,2
60.097766160964966,-1345,-1357,698,115074,2
60.13770627975464,-1321,-1352,721,115245,2
60.17783045768738,-1290,-1366,765,115339,2
60.21774506568909,-1358,-1358,768,115397,2
60.25772285461426,-1358,-1361,803,115397,2
60.297810077667236,-1314,-1353,821,115432,2
60.33770537376404,-1302,-1349,776,115497,2
60.37674069404602,-1316,-1356,787,115562,2
60.41672372817993,-1319,-1331,805,115610,2
60.45670008659363,-1313,-1329,825,115656,2
60.496746301651,-1296,-1313,833,115725,2
60.53677034378052,-1311,-1305,835,115738,2
60.57673668861389,-1300,-1328,839,115707,2
60.6167995929718,-1288,-1307,865,115151,2
60.65673351287842,-1389,-1254,990,114851,2
60.69751191139221,-1312,-1269,1111,115173,2
60.736852407455444,-1495,-1169,1347,115359,2
60.776753664016724,-1370,-1140,1506,115461,2
60.81674766540527,-1266,-1073,1297,115476,2
60.85669493675232,-1316,-919,1375,115473,2
60.89674615859985,-1124,-915,1401,115479,2
60.93608736991882,-970,-822,1282,115535,2
60.97572731971741,-1237,-648,1909,115607,2
61.01573872566223,-681,-569,1467,115679,2
61.0556857585907,-986,-397,1982,115798,2
61.095752239227295,-675,-356,1748,115891,2
61.13580513000488,-645,-259,1857,115955,2
61.17606019973755,-492,-222,1767,115940,2
61.215880393981934,-504,-175,1759,115969,2
61.25570631027222,-561,-60,2079,115953,2
61.296101808547974,-491,-77,1892,115916,2
61.33573627471924,-633,22,2221,115972,2
61.37600493431091,-596,279,2538,116018,2
61.415851354599,-954,530,3199,116031,2
61.45570158958435,-1200,636,2716,116028,2
61.49533224105835,-1105,634,2298,116029,2
61.53470182418823,-981,635,2026,116024,2
61.57474231719971,-635,571,1307,116028,2
61.61472797393799,-533,719,1529,116093,2
61.654802322387695,-126,643,1152,116125,2
61.70470452308655,-100,804,1212,116143,2
61.75003099441528,-147,1000,1230,116214,2
61.774709701538086,86,1088,1016,116249,2
61.81477618217468,-181,1226,1658,116236,2
61.85471248626709,-1,1282,1299,116192,2
61.89473533630371,52,1300,1273,116132,2
61.93470525741577,-10,1329,1437,116114,2
61.97535276412964,242,1299,1263,116219,2
62.0147430896759,295,1380,1711,116299,2
62.05372405052185,645,1543,2016,116434,2
62.0937020778656,463,1482,1134,116537,2
62.13372445106506,-1330,1721,663,116492,2
62.173893213272095,-2253,2112,-866,116526,2
62.2137405872345,-1203,1519,-713,116637,2
62.253769874572754,-696,1308,-193,116713,2
62.29377460479736,-548,1318,-193,116731,2
62.33388662338257,-715,1455,-8,116766,2
62.3737256526947,-743,1518,119,116762,2
62.413716316223145,-851,1648,14,116713,2
62.45374917984009,-1087,1721,-166,116718,2
62.493746757507324,-1252,1805,-139,116730,2
62.534112215042114,-1094,1748,-368,116766,2
62.57486081123352,-1019,1742,-39,116814,2
62.6127495765686,-872,1655,-66,116868,2
62.65272521972656,-833,1635,82,116922,2
62.692791223526,-1028,1626,-18,116971,2
62.73294472694397,-593,1384,-269,117013,2
62.77272295951843,-142,836,-299,117048,2
62.81274604797363,-596,451,925,117141,2
62.852733850479126,-345,283,1093,117156,2
62.89273524284363,-1057,-47,815,117142,2
62.93300271034241,-2008,143,2086,117111,2
62.97281217575073,-2303,26,1618,117057,2
63.01283288002014,-2987,139,2261,117049,2
63.05339574813843,-2758,95,2139,116862,2
63.09274172782898,-2356,80,1591,116211,2
63.132755756378174,-2002,-11,1215,115682,2
63.171775341033936,-1685,-49,1177,115877,2
63.21183133125305,-1469,-83,1063,116243,2
63.25174856185913,-1361,-219,861,116448,2
63.29178524017334,-1462,-251,908,116530,2
63.331785917282104,-1602,-270,864,116528,2
63.37176322937012,-1771,-318,801,116472,2
63.411768674850464,-1948,-426,787,116445,2
63.45174980163574,-2143,-538,700,116387,2
63.49180316925049,-2346,-440,731,116369,2
63.53178811073303,-2301,-386,711,116337,2
63.57178568840027,-1991,-367,554,116366,2
63.61186599731445,-1855,-319,604,116381,2
63.65181756019592,-1762,-306,622,116271,2
63.691805601119995,-1890,-243,607,115180,2
63.731024980545044,-1910,-263,535,114563,2
63.77077555656433,-1922,-383,485,114618,2
63.81076765060425,-2227,-259,466,114817,2
63.85074496269226,-2251,-83,364,115203,2
63.89077639579773,-1819,-154,297,115546,2
63.9307587146759,-1730,-262,430,115648,2
63.97073245048523,-1850,-307,556,115569,2
64.01076769828796,-2079,-235,542,115580,2
64.05082821846008,-2154,-195,401,115669,2
64.09075927734375,-2019,-213,331,115762,2
64.13077974319458,-1921,-246,395,115793,2
64.1710102558136,-1941,-234,426,115816,2
64.21080493927002,-1893,-227,401,115818,2
64.24977326393127,-1815,-246,393,115690,2
64.28975462913513,-1957,-186,389,115126,2
64.32975029945374,-2067,-181,310,114781,2
64.36980080604553,-2031,-159,311,114965,2
64.4097728729248,-2115,-136,335,115223,2
64.44973492622375,-2097,-135,289,115396,2
64.48983812332153,-1950,-144,273,115525,2
64.52980399131775,-1994,-121,207,115542,2
64.56987619400024,-1979,-147,206,115549,2
64.60979676246643,-2048,-149,215,115547,2
64.64981532096863,-2069,-112,280,115576,2
64.68973445892334,-2020,-136,214,115625,2
64.72979140281677,-2019,-128,185,115649,2
64.77027893066406,-2055,-66,234,115696,2
64.80877375602722,-2020,-91,274,115742,2
64.84877228736877,-1990,-151,211,115623,2
64.88878560066223,-2171,-51,176,115190,2
64.92870569229126,-2166,-8,76,115091,2
64.96946883201599,-2078,19,41,115355,2
65.00874900817871,-2242,112,184,115529,2
65.04884696006775,-2166,120,175,115621,2
65.08874893188477,-2173,162,72,115630,2
65.12890958786011,-2174,218,12,115608,2
65.16878843307495,-2121,241,-35,115582,2
65.20879101753235,-2486,438,-128,115542,2
65.24880623817444,-2576,579,-143,115580,2
65.28880453109741,-2222,533,-104,115640,2
65.3287398815155,-2601,774,-18,115671,2
65.36780333518982,-1891,632,-78,115751,2
65.40844416618347,-1910,806,-63,115776,2
65.4477653503418,-1853,945,120,115702,2
65.48779535293579,-1562,978,156,115577,2
65.52782201766968,-1511,1132,133,115609,2
65.5677433013916,-1238,1091,84,115687,2
65.60781002044678,-1305,1241,155,115730,2
65.64776659011841,-1130,1330,277,115769,2
65.68776535987854,-1086,1363,309,115790,2
65.7277500629425,-977,1414,255,115786,2
65.76780223846436,-961,1513,330,115767,2
65.80775213241577,-914,1573,285,115738,2
65.84776759147644,-693,1532,189,115792,2
65.88811326026917,-754,1608,402,115847,2
65.92775964736938,-836,1717,416,115863,2
65.9668357372284,-771,1759,411,115878,2
66.00676774978638,-775,1719,586,115893,2
66.04675889015198,-714,1739,537,115897,2
66.08675980567932,-687,1726,632,115772,2
66.12676906585693,-790,1729,713,115724,2
66.16677594184875,-756,1738,713,115729,2
66.20754027366638,-664,1651,727,115760,2
66.24675679206848,-782,1702,726,115766,2
66.2867579460144,-720,1742,805,115771,2
66.3268129825592,-772,1723,874,115772,2
66.3667905330658,-694,1682,820,115770,2
66.40716981887817,-587,1673,881,115775,2
66.4457516670227,-741,1702,919,115799,2
66.48576426506042,-680,1701,941,115831,2
66.52578639984131,-643,1647,920,115850,2
66.5657548904419,-701,1659,964,115832,2
66.60628724098206,-440,1591,1147,115812,2
66.6459128856659,-650,1618,1068,115796,2
66.68584489822388,-609,1596,1042,115700,2
66.72577214241028,-575,1616,1117,115610,2
66.76577234268188,-575,1575,1113,115589,2
66.8059766292572,-553,1578,1131,115618,2
66.84578800201416,-711,1579,1152,115651,2
66.88616847991943,-414,1561,1193,115613,2
66.92576837539673,-454,1495,1209,115584,2
66.96583390235901,-595,1501,1269,115606,2
67.0049774646759,-453,1487,1317,115625,2
67.04478430747986,-405,1500,1299,115649,2
67.08478307723999,-493,1496,1378,115665,2
67.12477612495422,-521,1467,1405,115708,2
67.16477298736572,-307,1447,1298,115738,2
67.20511746406555,-377,1426,1393,115753,2
67.24481678009033,-316,1406,1424,115757,2
67.28488326072693,-360,1437,1414,115748,2
67.3247983455658,-291,1398,1463,115641,2
67.36482834815979,-290,1409,1468,115615,2
67.40480756759644,-302,1402,1459,115630,2
67.44487428665161,-251,1378,1463,115651,2
67.48490977287292,-257,1365,1462,115688,2
67.52386355400085,-244,1352,1488,115726,2
67.56382012367249,-263,1370,1513,115740,2
67.60398149490356,-275,1358,1491,115767,2
67.64439702033997,-223,1352,1518,115788,2
67.68381214141846,-246,1348,1545,115775,2
67.72380757331848,-208,1321,1549,115801,2
67.76383233070374,-221,1332,1488,115817,2
67.80379295349121,-212,1323,1506,115805,2
67.8438515663147,-177,1310,1531,115791,2
67.88375997543335,-165,1289,1539,115761,2
67.92384481430054,-189,1316,1601,115760,2
67.96388506889343,-233,1319,1673,115661,2
68.00382971763611,-297,1285,1645,115686,2
68.04400706291199,-218,1232,1620,115746,2
68.08337593078613,-237,1190,1595,115780,2
68.12281012535095,-190,1144,1480,115833,2
68.16278862953186,-148,1167,1546,115831,2
68.20323944091797,-127,1157,1549,115836,2
68.24349665641785,-156,1223,1605,115867,2
68.28282380104065,-229,1287,1788,115849,2
68.32278418540955,-255,1269,1779,115817,2
68.36280727386475,-191,1239,1699,115762,2
68.40278100967407,-160,1164,1658,115733,2
68.4428596496582,-140,1139,1611,115709,2
68.48287034034729,-73,1114,1591,115652,2
68.52284359931946,-108,1145,1672,115633,2
68.5629096031189,-159,1194,1746,115656,2
68.60179448127747,-197,1191,1821,115620,2
68.6421389579773,-192,1144,1774,115558,2
68.68179893493652,-21,1036,1609,115523,2
68.7217903137207,-20,1049,1716,115578,2
68.76180791854858,3,1039,1723,115619,2
68.80180883407593,37,1045,1784,115681,2
68.84203863143921,-72,1094,1804,115716,2
68.88180994987488,6,1032,1793,115751,2
68.92176580429077,63,955,1688,115782,2
68.96176528930664,39,967,1859,115798,2
69.0017900466919,85,954,1802,115822,2
69.0417594909668,132,904,1796,115804,2
69.08180236816406,190,867,1824,115854,2
69.12181186676025,150,888,1844,115925,2
69.16077041625977,211,837,1794,115964,2
69.20081543922424,220,824,1801,116007,2
69.24077677726746,214,842,1827,116057,2
69.28076648712158,143,872,1932,116111,2
69.32082223892212,179,886,1929,116072,2
69.36080074310303,218,879,1889,116058,2
69.40082216262817,187,893,1848,116070,2
69.44076347351074,232,856,1790,116108,2
69.4807698726654,246,853,1845,116145,2
69.52085447311401,208,877,1836,116156,2
69.56076502799988,76,958,1705,116175,2
69.60077595710754,78,1007,1830,116179,2
69.64083886146545,-24,1069,1658,116205,2
69.67983651161194,-91,1142,1618,116210,2
69.7199022769928,-118,1193,1685,116228,2
69.75982069969177,-208,1265,1560,116196,2
69.79981422424316,-352,1355,1537,116189,2
69.83982467651367,-397,1389,1451,116197,2
69.87984251976013,-401,1401,1374,116148,2
69.91991424560547,-407,1414,1411,116161,2
69.95985054969788,-416,1434,1451,116124,2
69.99984002113342,-478,1463,1359,116064,2
70.03981733322144,-501,1466,1282,116056,2
70.0801637172699,-528,1481,1162,116113,2
70.11989235877991,-666,1565,1199,116090,2
70.15980434417725,-777,1619,1093,116100,2
70.19981861114502,-694,1574,1022,116164,2
70.23882222175598,-731,1555,1028,116172,2
70.27910709381104,-803,1577,913,116181,2
70.31891345977783,-810,1582,841,116181,2
70.35883808135986,-886,1607,854,116221,2
70.39884924888611,-929,1629,892,116226,2
70.43876218795776,-911,1608,811,116248,2
70.47885155677795,-903,1585,809,116255,2
70.51883172988892,-944,1607,900,116231,2
70.55879044532776,-904,1579,840,116181,2
70.5988507270813,-901,1584,811,116176,2
70.63924551010132,-989,1631,932,116142,2
70.67931699752808,-912,1578,883,116093,2
70.71881937980652,-986,1568,892,116128,2
70.75780153274536,-959,1541,990,116143,2
70.79787349700928,-898,1496,1058,116188,2
70.83786940574646,-910,1487,1056,116190,2
70.87802124023438,-851,1428,1189,116219,2
70.91781997680664,-739,1339,1264,116239,2
70.95786762237549,-672,1249,1263,116258,2
70.99785566329956,-625,1204,1445,116258,2
71.03784561157227,-597,1173,1547,116264,2
71.07791066169739,-605,1139,1504,116259,2
71.11781311035156,-625,1143,1564,116245,2
71.15787816047668,-682,1177,1612,116237,2
71.19784426689148,-604,1143,1624,116205,2
71.23784160614014,-610,1105,1585,116234,2
71.27784705162048,-537,1089,1599,116270,2
71.31686162948608,-572,1080,1586,116287,2
71.35687112808228,-640,1105,1668,116283,2
71.39681625366211,-568,1046,1612,116285,2
71.43684983253479,-516,1001,1651,116318,2
71.47714376449585,-514,982,1757,116328,2
71.51679587364197,-489,944,1721,116369,2
71.55683612823486,-491,908,1737,116360,2
71.6208336353302,-515,923,1813,116344,2
71.63686990737915,-484,895,1788,116314,2
71.67686700820923,-488,883,1788,116310,2
71.7168607711792,-435,858,1791,116284,2
71.75687670707703,-393,840,1763,116292,2
71.79685592651367,-354,792,1841,116310,2
71.8358371257782,-341,766,1924,116327,2
71.87586975097656,-336,745,1854,116318,2
71.91583514213562,-318,758,1890,116317,2
71.95585870742798,-327,761,1869,116343,2
71.99587655067444,-339,778,1855,116336,2
72.03581118583679,-343,762,1909,116334,2
72.07583808898926,-314,744,1897,116361,2
72.11644124984741,-309,741,1863,116351,2
72.15584993362427,-293,736,1874,116332,2
72.19585847854614,-325,745,1872,116300,2
72.23586630821228,-281,729,1842,116312,2
72.27579355239868,-290,732,1880,116274,2
72.31583285331726,-275,714,1865,116262,2
72.35585904121399,-211,696,1931,116301,2
72.39490509033203,-270,699,1936,116321,2
72.43484711647034,-263,711,1919,116317,2
72.47489047050476,-264,729,1943,116323,2
72.51486587524414,-246,716,1896,116320,2
72.5548357963562,-199,717,1890,116295,2
72.59487581253052,-222,730,1902,116294,2
72.63481760025024,-205,713,1888,116276,2
72.67485022544861,-264,752,1951,116214,2
72.71479272842407,-171,715,1945,116176,2
72.75507712364197,-242,775,1832,116172,2
72.79500961303711,-209,783,1821,116195,2
72.83502984046936,-348,879,1787,116204,2
72.87488341331482,-303,855,1849,116204,2
72.91487956047058,-280,862,1818,116212,2
72.9539384841919,-222,873,1865,116179,2
72.99387693405151,-242,909,1887,116185,2
73.03382086753845,-323,964,1923,116218,2
73.07385301589966,-240,994,1830,116285,2
73.11396026611328,-337,1089,1692,116265,2
73.15388345718384,-302,1156,1667,116226,2
73.19390726089478,-84,1122,1623,116197,2
73.23384666442871,-43,1131,1668,116149,2
73.27386808395386,-34,1164,1748,116116,2
73.31382822990417,48,1187,1730,116058,2
73.35387849807739,74,1194,1687,116053,2
73.39382338523865,51,1239,1556,116098,2
73.43385934829712,51,1281,1582,116121,2
73.47388958930969,125,1296,1530,116178,2
73.51286339759827,184,1294,1348,116232,2
73.55286264419556,133,1251,1343,116290,2
73.59287786483765,25,1268,1712,116299,2
73.63350820541382,80,1281,1708,116341,2
73.67281794548035,90,1247,1633,116358,2
73.71283078193665,51,1289,1697,116381,2
73.75291323661804,173,1305,1599,116419,2
73.79287052154541,70,1366,1416,116427,2
73.83285665512085,-183,1465,1505,116365,2
73.87285137176514,-364,1620,1316,116337,2
73.91302013397217,-330,1649,1275,116319,2
73.95313620567322,-384,1639,1243,116284,2
73.99289345741272,-374,1656,1089,116264,2
74.03183484077454,-393,1664,966,116293,2
74.07189440727234,-471,1722,909,116318,2
74.11220908164978,-503,1747,867,116318,2
74.15191435813904,-555,1781,866,116334,2
74.1918830871582,-520,1786,798,116334,2
74.23196029663086,-595,1822,860,116322,2
74.27189803123474,-553,1835,737,116317,2
74.31195783615112,-559,1840,641,116296,2
74.3523907661438,-627,1853,602,116275,2
74.39188194274902,-537,1831,570,116235,2
74.43188810348511,-616,1822,503,116224,2
74.4718382358551,-579,1779,536,116198,2
74.51189637184143,-557,1797,535,116228,2
74.55203151702881,-525,1765,422,116229,2
74.59085583686829,-536,1811,547,116232,2
74.63094973564148,-550,1796,503,116238,2
74.67086815834045,-744,1818,580,116265,2
74.71189260482788,-636,1870,619,116311,2
74.7510666847229,-712,1837,557,116326,2
74.79091620445251,-1097,1961,776,116330,2
74.83091759681702,-753,1847,596,116354,2
74.87086129188538,-857,1936,669,116322,2
74.91085052490234,-943,1957,556,116282,2
74.95086121559143,-859,1827,564,116280,2
74.99088287353516,-747,1596,572,116304,2
75.03084921836853,-690,1504,651,116287,2
75.07089567184448,-548,1475,500,116316,2
75.11086964607239,-874,1657,529,116302,2
75.14984130859375,-741,1756,649,116282,2
75.18987488746643,-883,1946,616,116260,2
75.2299120426178,-963,1967,740,116258,2
75.26984596252441,-793,1903,918,116289,2
75.30987191200256,-613,1776,964,116300,2
75.34994626045227,-580,1711,890,116328,2
75.38985776901245,-531,1660,805,116312,2
75.42994117736816,-636,1641,737,116289,2
75.46995186805725,-863,1640,717,116280,2
75.51001715660095,-550,1515,762,116277,2
75.54986596107483,-299,1383,887,116320,2
75.59041237831116,-204,1162,967,116324,2
75.62984991073608,-306,943,1072,116380,2
75.66984963417053,-362,784,1610,116420,2
75.70889663696289,-322,495,1159,116435,2
75.7488660812378,-834,530,1371,116437,2
75.78888607025146,-1004,624,1538,116462,2
75.82906198501587,-857,547,1506,116447,2
75.8689284324646,-1121,532,1523,116420,2
75.90904641151428,-976,479,1592,116419,2
75.94947814941406,-1161,308,1656,116400,2
75.98972630500793,-1320,350,1879,116384,2
76.02893853187561,-1066,67,1560,116373,2
76.06890487670898,-1366,-30,1730,116375,2
76.1089735031128,-1578,-88,2093,116358,2
76.14889883995056,-1439,-127,2023,116359,2
76.18909931182861,-1341,-263,1489,116372,2
76.22887802124023,-1132,-448,1483,116439,2
76.26790714263916,-1334,-476,1851,116438,2
76.30790400505066,-1215,-485,1808,116429,2
76.34825205802917,-1213,-672,1406,116444,2
76.38793611526489,-1245,-1036,1059,116360,2
76.42789149284363,-1491,-1242,1209,116204,2
76.46816825866699,-1880,-1351,1372,115972,2
76.5079140663147,-2202,-1273,1580,115757,2
76.54793620109558,-2244,-962,1634,115785,2
76.58787393569946,-2178,-882,1258,115764,2
76.62789344787598,-1827,-1170,963,115721,2
76.66791796684265,-1748,-1325,1011,115703,2
76.70788860321045,-1528,-1333,681,115665,2
76.7478928565979,-1382,-1086,554,115723,2
76.78720378875732,-1295,-914,690,115798,2
76.82690834999084,-1246,-1010,741,115890,2
76.86695671081543,-1139,-1041,893,115937,2
76.90690422058105,-1288,-1182,829,115986,2
76.9468822479248,-1314,-1254,946,116003,2
76.9870433807373,-1497,-1347,902,115954,2
77.02693843841553,-1532,-1344,940,115761,2
77.06689023971558,-1403,-1124,1042,115484,2
77.10688138008118,-1283,-936,1201,115561,2
77.14693593978882,-1088,-959,1158,115726,2
77.18722629547119,-1163,-1009,1048,115791,2
77.22694158554077,-1390,-1125,1038,115819,2
77.26707363128662,-1562,-1208,1115,115811,2
77.30691432952881,-1557,-955,1293,115813,2
77.34593939781189,-1513,-851,1190,115800,2
77.38592529296875,-1532,-989,992,115767,2
77.42592120170593,-1587,-1033,971,115760,2
77.46588778495789,-1578,-1062,1052,115764,2
77.50588345527649,-1578,-1044,963,115817,2
77.5458972454071,-1443,-1005,926,115855,2
77.58593797683716,-1363,-1121,819,115919,2
77.62654113769531,-1085,-1261,975,115765,2
77.66597723960876,-1186,-1200,998,115648,2
77.70593118667603,-1367,-1075,1004,115664,2
77.7464964389801,-1495,-1050,1071,115696,2
77.78589582443237,-1521,-939,1453,115710,2
77.82594752311707,-1360,-866,1327,115718,2
77.86599946022034,-1473,-900,977,115743,2
77.9059510231018,-1382,-941,1020,115762,2
77.9449143409729,-1369,-960,1179,115792,2
77.98493552207947,-1527,-910,1170,115763,2
78.02529644966125,-1630,-847,1138,115794,2
78.06496787071228,-1332,-871,1378,115848,2
78.10516571998596,-1255,-842,1187,115813,2
78.1448872089386,-1296,-818,929,115839,2
78.18493795394897,-1089,-923,1306,115801,2
78.22514462471008,-1097,-981,1324,115629,2
78.2649188041687,-1433,-990,914,115587,2
78.30492854118347,-1503,-1004,1160,115653,2
78.3449068069458,-1316,-987,1502,115739,2
78.38489127159119,-1238,-1004,1312,115776,2
78.42489099502563,-1203,-986,1092,115834,2
78.46493768692017,-1291,-936,1049,115862,2
78.50394535064697,-1285,-974,1049,115882,2
78.54392695426941,-1382,-1038,1069,115891,2
78.58396625518799,-1425,-1057,1150,115927,2
78.62395930290222,-1405,-1071,1101,115974,2
78.66391634941101,-1348,-1138,893,116007,2
78.70389413833618,-1729,-975,1292,116046,2
78.7439296245575,-1272,-1116,1204,116037,2
78.78391194343567,-1369,-1155,1034,115806,2
78.82431054115295,-1434,-1148,1032,115567,2
78.8639349937439,-1362,-1166,1088,115559,2
78.90403366088867,-1390,-1207,1214,115659,2
78.94390273094177,-1235,-1209,1183,115702,2
78.98394966125488,-1311,-1216,934,115783,2
79.02393984794617,-1271,-1203,985,115841,2
79.0629312992096,-1351,-1188,962,115889,2
79.10303139686584,-1328,-1193,996,115919,2
79.14290857315063,-1301,-1220,944,115938,2
79.18295669555664,-1314,-1233,881,115960,2
79.22292518615723,-1336,-1235,874,115997,2
79.26291131973267,-1347,-1244,890,116021,2
79.30291652679443,-1281,-1201,906,116030,2
79.3430118560791,-1282,-1185,936,115886,2
79.38291501998901,-1237,-1194,1086,115217,2
79.42291307449341,-1349,-1083,1145,114925,2
79.46315264701843,-1326,-1078,1030,115292,2
79.50293612480164,-1332,-1077,1106,115455,2
79.54292869567871,-1360,-1022,1175,115545,2
79.58290433883667,-1440,-958,1186,115622,2
79.62191843986511,-1359,-946,1305,115658,2
79.66203117370605,-1429,-912,1251,115663,2
79.70195317268372,-1400,-907,1216,115690,2
79.74192118644714,-1421,-851,1441,115743,2
79.78193497657776,-1403,-817,1332,115773,2
79.82192087173462,-1734,-612,1695,115769,2
79.86265230178833,-1549,-576,1617,115766,2
79.90192914009094,-1579,-603,1855,115723,2
79.9419093132019,-1257,-636,2037,115396,2
79.98196291923523,-1218,-585,2096,115025,2
80.02207326889038,-1145,-505,2020,115159,2
80.06195497512817,-987,-367,1934,115278,2
80.10191011428833,-816,-344,1817,115314,2
80.14195942878723,-772,-206,2036,115360,2
80.1808660030365,-509,-168,1790,115383,2
80.22088503837585,-400,-49,1843,115372,2
80.26088857650757,-357,64,1982,115419,2
80.30087614059448,-45,111,1811,115483,2
80.34088373184204,-171,251,1971,115532,2
80.38105940818787,-97,291,1770,115568,2
80.42085409164429,4,297,1682,115635,2
80.4616346359253,-134,369,2100,115676,2
80.50094962120056,467,251,1866,115635,2
80.54088282585144,345,141,1800,115521,2
80.58093547821045,386,161,1997,115439,2
80.62093186378479,472,113,1704,115471,2
80.66091108322144,325,213,2142,115529,2
80.70098948478699,531,157,2020,115599,2
80.74092984199524,626,105,1765,115660,2
80.77989625930786,334,178,2148,115706,2
80.81992673873901,637,95,1930,115758,2
80.85998058319092,603,106,1732,115777,2
80.90005040168762,536,158,2121,115829,2
80.93986868858337,788,30,1825,115827,2
80.97996282577515,640,78,1641,115821,2
81.01988291740417,714,124,2075,115850,2
81.05995225906372,792,84,1741,115835,2
81.0999481678009,727,145,1759,115791,2
81.13996124267578,1027,193,1770,115806,2
81.17992043495178,835,445,1699,115808,2
81.2444589138031,549,474,2317,115757,2
81.27350234985352,884,210,2054,115812,2
81.30007457733154,921,91,1453,115952,2
81.3389265537262,488,119,2201,116089,2
81.37895655632019,816,-12,1714,116104,2
81.41894602775574,718,128,1666,116120,2
81.4589912891388,819,209,1831,116140,2
81.4995846748352,919,253,1735,116122,2
81.53887414932251,876,309,1736,116123,2
81.57891154289246,1011,282,1914,116105,2
81.61891913414001,1024,279,1728,116078,2
81.65890765190125,1070,262,1709,116052,2
81.69891357421875,988,284,1699,116048,2
81.73901414871216,1050,249,1672,116002,2
81.77900171279907,1042,236,1781,115981,2
81.81893849372864,1098,227,1779,115966,2
81.85891389846802,1092,200,1706,115935,2
81.89807891845703,1018,247,1849,115944,2
81.93808650970459,959,248,1788,115952,2
81.97853708267212,978,237,1685,115937,2
82.01806473731995,929,201,1765,115955,2
82.05793952941895,959,147,1766,115965,2
82.0982313156128,906,96,1752,115983,2
82.13791251182556,875,35,1635,115971,2
82.17799353599548,822,32,1766,115969,2
82.21792221069336,726,77,1916,115963,2
82.25793480873108,863,-12,1844,115933,2
82.29812693595886,846,-31,1870,115941,2
82.33797478675842,823,-49,1938,115943,2
82.37793302536011,725,-39,1997,115927,2
82.41807699203491,748,-97,1917,115914,2
82.4569308757782,805,-153,1796,115921,2
82.49695324897766,761,-187,1686,115972,2
82.53696775436401,719,-256,1417,116027,2
82.5769464969635,740,-374,832,116082,2
82.61692309379578,630,-555,272,116105,2
82.65693640708923,292,-715,218,116138,2
82.69693636894226,-102,-828,336,116149,2
82.73692774772644,-801,-1011,597,116131,2
82.77792263031006,-1286,-1450,971,116120,2
82.81697869300842,-2633,-1844,1861,116053,2
82.85696482658386,-3125,-2066,2412,115929,2
82.89694905281067,-3270,-2166,2333,115852,2
82.93760919570923,-3202,-1443,2493,115849,2
82.97596383094788,-2546,-967,2471,115576,2
83.01595950126648,-1752,-1025,1968,114690,2
83.05597829818726,-1413,-1164,1685,114494,2
83.0959849357605,-1245,-1186,1408,114860,2
83.1359658241272,-1213,-1137,1071,115274,2
83.17597961425781,-1350,-1017,972,115533,2
83.21594667434692,-1459,-986,976,115657,2
83.25596499443054,-1654,-938,1068,115718,2
83.29601073265076,-1733,-952,1287,115752,2
83.33622360229492,-1411,-1073,1486,115791,2
83.37596559524536,-901,-1235,1659,115838,2
83.41595244407654,-1350,-1279,1351,115903,2
83.45600247383118,-1147,-1284,1156,116014,2
83.49670171737671,-1245,-1226,1021,116115,2
83.53513741493225,-1331,-1224,897,116160,2
83.57495665550232,-1360,-1337,806,116124,2
83.61492562294006,-1235,-1351,997,115617,2
83.65494847297668,-1341,-1266,977,115080,2
83.6949987411499,-1289,-1191,957,115266,2
83.73513627052307,-1209,-1168,885,115610,2
83.77496695518494,-1298,-1140,892,115809,2
83.81494665145874,-1219,-1170,959,115918,2
83.85498309135437,-1333,-1109,927,115954,2
83.89510989189148,-1253,-1113,1037,115956,2
83.93495273590088,-1359,-1095,1070,115983,2
83.97497844696045,-1353,-1082,1112,115979,2
84.0149781703949,-1336,-1080,1195,116038,2
84.05499291419983,-1369,-1087,1157,116085,2
84.09398555755615,-1355,-1097,1152,116135,2
84.13415002822876,-1352,-1047,1180,116173,2
84.17395877838135,-1376,-1045,1132,116225,2
84.21400499343872,-1382,-1071,1102,116167,2
84.25396823883057,-1371,-1060,1099,115681,2
84.29397678375244,-1367,-1041,1081,115277,2
84.33420634269714,-1354,-1031,1044,115491,2
84.37523770332336,-1377,-1055,999,115738,2
84.41401433944702,-1332,-1092,1040,115830,2
84.45396399497986,-1345,-1080,1031,115905,2
84.49450087547302,-1337,-1065,1077,115913,2
84.53429341316223,-1319,-1060,1158,115926,2
84.57396507263184,-1311,-1080,1132,115967,2
84.61316394805908,-1317,-1089,1080,116005,2
84.65301465988159,-1314,-1093,1117,116052,2
84.69298982620239,-1332,-1086,1098,116087,2
84.73306345939636,-1345,-1065,1130,116134,2
84.77299857139587,-1345,-1058,1144,116158,2
84.81298446655273,-1366,-1069,1087,116128,2
84.85302352905273,-1344,-1060,1095,115755,2
84.89296102523804,-1356,-1048,1123,115390,2
84.93298363685608,-1388,-1046,1105,115521,2
84.97377753257751,-1385,-1065,1134,115690,2
85.0129747390747,-1385,-1066,1100,115765,2
85.05297112464905,-1357,-1068,1083,115831,2
85.09324145317078,-1331,-1064,1098,115898,2
85.13197350502014,-1317,-1085,1042,115925,2
85.17222619056702,-1335,-1105,1020,115956,2
85.21204352378845,-1344,-1096,1100,115984,2
85.2520022392273,-1356,-1090,1088,116044,2
85.29201579093933,-1329,-1091,1090,116077,2
85.33207392692566,-1305,-1104,1105,116119,2
85.37256002426147,-1307,-1090,1095,116155,2
85.41224241256714,-1354,-1075,1075,116163,2
85.45204639434814,-1360,-1095,1076,116060,2
85.49206185340881,-1364,-1063,1100,115593,2
85.5320315361023,-1371,-1057,1080,115244,2
85.57212805747986,-1381,-1044,1063,115433,2
85.6120822429657,-1386,-1050,1062,115648,2
85.6519947052002,-1374,-1064,1051,115754,2
85.69108295440674,-1369,-1077,1056,115848,2
85.73104906082153,-1396,-1064,1059,115877,2
85.77123594284058,-1359,-1066,1072,115905,2
85.8111252784729,-1364,-1071,1058,115943,2
85.85099983215332,-1377,-1090,1069,115967,2
85.89102578163147,-1364,-1084,1070,116049,2
85.93122005462646,-1356,-1089,1076,116073,2
85.97139739990234,-1376,-1103,1081,116065,2
86.01098132133484,-1366,-1096,1084,116065,2
86.05121684074402,-1369,-1074,1088,116085,2
86.09152698516846,-1359,-1087,1068,116073,2
86.13104462623596,-1349,-1088,1099,115827,2
86.17109179496765,-1364,-1065,1076,115355,2
86.20998644828796,-1387,-1057,1044,115340,2
86.25047636032104,-1377,-1069,1065,115611,2
86.29003810882568,-1369,-1072,1017,115762,2
86.33003616333008,-1380,-1071,1036,115859,2
86.37015962600708,-1353,-1070,1085,115916,2
86.41005444526672,-1336,-1066,1063,115919,2
86.4500343799591,-1340,-1080,1051,115927,2
86.48999381065369,-1382,-1073,1064,115946,2
86.53002715110779,-1389,-1082,1084,115964,2
86.57001066207886,-1399,-1093,1107,115958,2
86.61005544662476,-1395,-1090,1078,115972,2
86.65004777908325,-1367,-1062,1063,115996,2
86.69003629684448,-1335,-1031,1050,116023,2
86.73000025749207,-1322,-1054,1058,116066,2
86.76898145675659,-1340,-1054,1100,115917,2
86.80909419059753,-1337,-1015,1125,115258,2
86.84899306297302,-1382,-1065,1061,114938,2
86.88899850845337,-1413,-1052,1130,115259,2
86.92900800704956,-1444,-1040,1119,115562,2
86.96904587745667,-1513,-1132,859,115714,2
87.00913619995117,-1273,-1175,953,115804,2
87.04900360107422,-1258,-1061,1166,115835,2
87.08899569511414,-1274,-1044,1261,115862,2
87.12902975082397,-1344,-994,1271,115889,2
87.16896796226501,-1423,-1024,1112,115906,2
87.20905017852783,-1388,-1034,960,115928,2
87.24901866912842,-1388,-1008,1064,115933,2
87.28903651237488,-1397,-976,1141,115980,2
87.32897615432739,-1469,-1076,999,115998,2
87.36798000335693,-1433,-1185,1042,116005,2
87.40826296806335,-1421,-1128,1087,115788,2
87.4481132030487,-1436,-1031,1181,114843,2
87.48799705505371,-1392,-1063,1237,114600,2
87.5280282497406,-1337,-1091,1121,114980,2
87.56800198554993,-1236,-1114,1091,115381,2
87.60801148414612,-1145,-1154,1212,115592,2
87.64806008338928,-1140,-1196,1258,115735,2
87.68801522254944,-1179,-1191,1259,115780,2
87.72801685333252,-1237,-998,1194,115795,2
87.76801347732544,-1341,-934,1044,115836,2
87.80821204185486,-1472,-1022,897,115837,2
87.84800338745117,-1559,-1049,853,115854,2
87.88800859451294,-1542,-928,901,115871,2
87.92795276641846,-1495,-977,783,115870,2
87.96703457832336,-1424,-1036,711,115850,2
88.00724482536316,-1363,-947,878,115865,2
88.04715514183044,-1441,-940,984,115609,2
88.08708596229553,-1611,-1030,850,114809,2
88.12704062461853,-1648,-1027,858,114541,2
88.16704630851746,-1504,-952,1060,114654,2
88.20702505111694,-1648,-1044,1014,114744,2
88.24703073501587,-1546,-1080,1069,114859,2
88.2871925830841,-1416,-1057,1154,115100,2
88.32702016830444,-1387,-1074,1050,115274,2
88.36705374717712,-1386,-1067,955,115391,2
88.40702772140503,-1404,-1087,917,115437,2
88.44703769683838,-1400,-1148,925,115460,2
88.48753237724304,-1346,-1082,1052,115504,2
88.52605199813843,-1470,-1022,1104,115561,2
88.56616234779358,-1468,-1045,977,115622,2
88.60601305961609,-1450,-955,1019,115699,2
88.64615726470947,-1420,-940,993,115643,2
88.68606543540955,-1451,-964,878,114856,2
88.72605633735657,-1480,-1002,823,114530,2
88.76602578163147,-1542,-1184,703,114834,2
88.80612230300903,-1575,-1212,644,114969,2
88.84640097618103,-1559,-1059,1016,114936,2
88.88605570793152,-1737,-1093,1222,114924,2
88.92605781555176,-1791,-1126,1191,114821,2
88.96631097793579,-1755,-1036,1165,114856,2
89.00604724884033,-1629,-987,1183,115066,2
89.0460114479065,-1412,-881,1325,115325,2
89.08607912063599,-1309,-821,1493,115418,2
89.12501549720764,-1510,-1138,1306,115431,2
89.16502141952515,-1779,-1477,871,115415,2
89.20500826835632,-1271,-725,944,115519,2
89.24508714675903,-1043,-471,1011,115656,2
89.28505802154541,-1088,-479,1018,115559,2
89.32506442070007,-1095,-564,1218,115052,2
89.3650050163269,-1060,-653,1265,115072,2
89.40508508682251,-1071,-661,1545,115334,2
89.44504904747009,-1145,-619,1622,115436,2
89.48507118225098,-1322,-613,1578,115449,2
89.52501916885376,-1345,-735,1521,115450,2
89.56503129005432,-1292,-781,1428,115411,2
89.60502028465271,-1169,-651,1376,115341,2
89.645090341568,-1194,-699,1379,115311,2
89.68497133255005,-1331,-710,1478,115343,2
89.72406125068665,-1267,-615,1579,115361,2
89.76401567459106,-1285,-530,1594,115346,2
89.80405116081238,-1337,-468,1557,115311,2
89.84436655044556,-1329,-459,1522,115334,2
89.88431525230408,-1637,-394,1593,115300,2
89.92404532432556,-1582,-251,1274,115146,2
89.96402311325073,-1615,-36,1668,115078,2
