Timestamp,AccX,AccY,AccZ,Heart_IR,Phase
0.019126415252685547,454,1891,55,108109,0
0.05929684638977051,340,1836,39,108089,0
0.09932327270507812,164,1872,88,108148,0
0.14002275466918945,214,1941,140,108241,0
0.17909598350524902,404,1994,104,108291,0
0.21911072731018066,495,2044,75,108302,0
0.2595698833465576,348,2145,122,108304,0
0.2990102767944336,107,2183,230,108330,0
0.33899998664855957,106,2091,187,108344,0
0.3789951801300049,399,1885,60,108373,0
0.419116735458374,656,1697,-11,108441,0
0.4581332206726074,564,1846,28,108548,0
0.4982936382293701,120,2131,215,108660,0
0.5381133556365967,-102,2328,329,108614,0
0.5787451267242432,105,2214,226,108395,0
0.6180107593536377,354,1974,58,108305,0
0.6579577922821045,505,1815,-31,108278,0
0.6979169845581055,491,1840,13,108334,0
0.7380483150482178,334,1981,91,108402,0
0.7786240577697754,155,2113,130,108464,0
0.8179621696472168,72,2158,201,108470,0
0.858041524887085,289,2028,155,108468,0
0.8969497680664062,499,1875,45,108503,0
0.9369845390319824,510,1874,68,108555,0
0.9770607948303223,324,1997,164,108622,0
1.0169224739074707,87,2113,211,108716,0
1.0569863319396973,82,2132,181,108778,0
1.0969469547271729,237,2029,65,108744,0
1.137052059173584,422,1939,16,108559,0
1.177229881286621,415,1944,74,108421,0
1.2169837951660156,236,2049,176,108414,0
1.2569658756256104,61,2142,215,108441,0
1.2969107627868652,83,2116,178,108530,0
1.3368747234344482,312,2005,64,108593,0
1.3762693405151367,473,1919,39,108602,0
1.4159300327301025,463,1889,35,108597,0
1.4559240341186523,251,1995,96,108638,0
1.4958083629608154,8,2116,176,108710,0
1.5358176231384277,34,2123,185,108755,0
1.576460361480713,268,2025,62,108785,0
1.6162359714508057,441,1913,-5,108829,0
1.655827283859253,456,1904,-20,108828,0
1.6957616806030273,303,2026,69,108699,0
1.735797643661499,86,2154,143,108543,0
1.7759623527526855,10,2174,180,108495,0
1.814824104309082,163,2043,115,108515,0
1.854844331741333,339,1923,37,108585,0
1.8948054313659668,415,1899,36,108667,0
1.9347617626190186,322,1963,60,108714,0
1.9747395515441895,120,2092,138,108729,0
2.0147674083709717,63,2144,186,108723,0
2.054813861846924,205,2080,107,108730,0
2.0954737663269043,378,1957,24,108741,0
2.1348493099212646,410,1923,32,108793,0
2.174868583679199,219,2003,151,108845,0
2.2147233486175537,38,2076,212,108928,0
2.25475811958313,130,2070,158,108924,0
2.293903350830078,285,2028,75,108720,0
2.3338980674743652,343,1998,54,108585,0
2.3737635612487793,299,2005,95,108588,0
2.413784980773926,163,2052,170,108624,0
2.4537129402160645,65,2080,205,108731,0
2.4938554763793945,169,2027,193,108774,0
2.5338618755340576,338,1950,79,108741,0
2.5737249851226807,422,1950,4,108699,0
2.6137351989746094,240,2038,49,108713,0
2.6537132263183594,37,2126,142,108771,0
2.6940009593963623,49,2118,180,108818,0
2.732780694961548,205,1994,118,108887,0
2.7727904319763184,382,1887,66,108936,0
2.8127267360687256,404,1862,53,108992,0
2.852787494659424,296,1979,92,109027,0
2.8930068016052246,137,2123,122,108875,0
2.9327454566955566,74,2210,171,108728,0
2.972712993621826,70,2168,166,108668,0
3.012739658355713,185,2063,119,108683,0
3.0527923107147217,229,1968,97,108752,0
3.092912435531616,247,1915,115,108774,0
3.1328718662261963,290,1911,111,108810,0
3.172733783721924,279,1939,115,108801,0
3.211866617202759,224,2043,153,108813,0
3.2517247200012207,204,2111,116,108854,0
3.291865825653076,110,2152,131,108920,0
3.3318192958831787,131,2130,203,108991,0
3.3718113899230957,193,2074,244,109040,0
3.411736488342285,262,2004,213,109090,0
3.451796054840088,298,1936,149,109108,0
3.491856336593628,284,1908,96,109001,0
3.531805992126465,274,1951,127,108815,0
3.57177472114563,232,1967,137,108678,0
3.6117894649505615,207,1998,89,108706,0
3.6518139839172363,219,2035,70,108774,0
3.690786123275757,256,2081,55,108875,0
3.7307240962982178,204,2085,63,108922,0
3.7707760334014893,133,2077,94,108929,0
3.8108561038970947,150,2046,123,108935,0
3.8507697582244873,210,2022,139,108938,0
3.890773296356201,195,2006,121,108955,0
3.9307918548583984,178,1987,132,108994,0
3.9708914756774902,221,2005,114,109012,0
4.010757207870483,233,2035,110,109067,0
4.05075478553772,176,2064,118,109115,0
4.091214895248413,138,2084,139,109155,0
4.12980580329895,149,2038,132,109043,0
4.169900417327881,203,2002,121,108853,0
4.210818767547607,230,1999,131,108783,0
4.249797105789185,193,2012,131,108824,0
4.289759397506714,181,2032,133,108897,0
4.329793214797974,192,2041,124,108975,0
4.369768857955933,178,2022,101,109003,0
4.410562992095947,180,2025,143,108972,0
4.449730396270752,170,1995,159,108940,0
4.4897990226745605,252,1989,134,108945,0
4.529780626296997,280,2023,96,108987,0
4.569783449172974,199,2079,99,109061,0
4.608721494674683,78,2091,120,109124,0
4.648768901824951,52,2093,136,109183,0
4.6887595653533936,92,2051,162,109239,0
4.728898286819458,178,1977,149,109278,0
4.768726110458374,269,1917,115,109153,0
4.808912515640259,321,1954,89,108957,0
4.848828077316284,282,2017,86,108874,0
4.888840913772583,143,2085,140,108874,0
4.928743839263916,37,2125,181,108927,0
4.9687371253967285,97,2092,166,108988,0
5.008840799331665,213,2007,125,109027,0
5.048768997192383,256,1987,128,109029,0
5.087838888168335,251,1988,109,109007,0
5.127848863601685,173,2021,104,109031,0
5.167757272720337,127,2048,130,109094,0
5.207845449447632,143,2057,149,109154,0
5.247762203216553,193,2034,172,109207,0
5.2877819538116455,223,2023,158,109236,0
5.32780647277832,196,2010,152,109269,0
5.368534088134766,208,2018,127,109272,0
5.408622980117798,187,2018,93,109233,0
5.447747230529785,179,2035,106,109031,0
5.487799406051636,167,2046,152,108903,0
5.527757883071899,196,2031,157,108918,0
5.566816806793213,160,2030,173,108961,0
5.606760740280151,163,2051,158,109033,0
5.646767854690552,148,2039,146,109105,0
5.686764717102051,206,2010,117,109100,0
5.7269487380981445,252,1993,96,109090,0
5.766737461090088,247,1995,121,109069,0
5.806746244430542,192,2003,122,109089,0
5.846755027770996,146,2023,152,109115,0
5.886819839477539,112,2037,140,109155,0
5.927594900131226,196,2058,109,109200,0
5.966729164123535,243,2023,39,109253,0
6.005739212036133,366,2015,86,109315,0
6.04589056968689,288,1981,121,109215,0
6.085766553878784,90,2004,128,109020,0
6.125951766967773,-35,2084,218,108947,0
6.165776491165161,100,2085,250,108930,0
6.205790996551514,270,2005,204,108981,0
6.245734214782715,363,1952,209,109038,0
6.285948038101196,330,1961,199,109066,0
6.325937747955322,217,2025,156,109046,0
6.365939140319824,109,2073,139,109005,0
6.405874252319336,123,2073,139,109033,0
6.445756673812866,122,2030,92,109086,0
6.484855651855469,202,1983,83,109120,0
6.524989128112793,233,1964,53,109176,0
6.564724922180176,280,1950,95,109255,0
6.60486364364624,346,1970,67,109321,0
6.644758224487305,311,2094,34,109308,0
6.68481183052063,-70,2117,107,109132,0
6.7249085903167725,-241,2141,348,109020,0
6.764795303344727,-60,2066,371,108948,0
6.8055360317230225,184,1932,133,108954,0
6.845227003097534,344,1908,39,109004,0
6.884788274765015,254,1972,35,109088,0
6.923771381378174,111,2110,84,109086,0
6.963747024536133,-29,2207,90,109050,0
7.003756284713745,-84,2226,70,109040,0
7.043901681900024,25,2099,36,109080,0
7.083828449249268,150,1953,34,109137,0
7.1238112449646,256,1848,23,109182,0
7.163768291473389,255,1814,-86,109209,0
7.204191207885742,125,1942,-84,109259,0
7.243911504745483,-56,2073,224,109226,0
7.283810615539551,-100,2105,426,109048,0
7.3238184452056885,43,2057,451,108950,0
7.363795757293701,196,1928,505,108984,0
7.402852773666382,240,1881,427,109032,0
7.442837476730347,109,1897,276,109097,0
7.4827656745910645,53,1975,223,109195,0
7.522770404815674,-59,2082,343,109318,0
7.562862873077393,-170,2090,533,109444,0
7.602856159210205,26,2029,490,109489,0
7.64279842376709,107,2029,371,109491,0
7.682769298553467,0,2022,333,109438,0
7.722808122634888,20,2072,319,109421,0
7.762745141983032,5,2077,282,109413,0
7.802893161773682,9,2112,106,109373,0
7.8417809009552,-27,2166,73,109170,0
7.881776571273804,-22,2167,92,108992,0
7.921773672103882,14,2119,85,108916,0
7.961857557296753,31,2055,109,108952,0
8.001840591430664,118,2005,90,108985,0
8.041784524917603,57,1935,81,109062,0
8.081781387329102,119,1898,102,109044,0
8.121762990951538,158,1915,134,109021,0
8.161876916885376,171,1984,229,109009,0
8.201783180236816,77,2036,325,109025,0
8.241772651672363,54,2037,348,109055,0
8.281999588012695,16,1966,299,109112,0
8.320759296417236,-61,1958,245,109189,0
8.360889911651611,-59,1937,206,109213,0
8.400782108306885,-69,1882,186,109074,0
8.440898180007935,-43,1894,229,108919,0
8.481012105941772,39,1996,185,108828,0
8.520769596099854,-2,2100,112,108837,0
8.561312437057495,-70,2252,99,108876,0
8.6007821559906,-205,2360,179,108901,0
8.6408109664917,-201,2308,286,108881,0
8.680781602859497,-95,2125,181,108754,0
8.72079586982727,-15,1996,51,108726,0
8.760846138000488,8,1928,91,108753,0
8.799767255783081,26,1876,161,108795,0
8.839787006378174,50,1871,150,108878,0
8.879801988601685,177,2002,201,108980,0
8.91974425315857,270,2118,182,109066,0
8.960377931594849,168,2155,135,108975,0
8.999954223632812,-2,2077,63,108722,0
9.039781332015991,-141,2004,87,108582,0
9.079782485961914,-86,1919,99,108547,0
9.11978006362915,-28,1842,106,108613,0
9.160272121429443,67,1864,165,108702,0
9.199960708618164,108,1917,168,108786,0
9.23892092704773,111,2042,77,108771,0
9.278785943984985,-148,2204,153,108716,0
9.318783044815063,-349,2289,303,108690,0
9.358893871307373,-286,2205,372,108682,0
9.39881420135498,-85,2008,280,108701,0
9.438806533813477,60,1918,182,108747,0
9.478782892227173,42,1924,138,108819,0
9.51884150505066,-21,2010,118,108845,0
9.558804512023926,-89,2034,146,108678,0
9.598824739456177,-72,2091,173,108498,0
9.638782262802124,-54,2120,208,108416,0
9.67896318435669,-15,2079,229,108445,0
9.717878341674805,34,2045,178,108539,0
9.758068561553955,-15,2032,180,108646,0
9.797792673110962,-5,1993,171,108703,0
9.837767601013184,-9,1937,186,108714,0
9.878214836120605,15,1899,157,108701,0
9.917769193649292,-68,1875,142,108734,0
9.957837104797363,-141,1876,145,108730,0
9.997902631759644,-149,1988,210,108773,0
10.037828207015991,-280,2087,348,108814,0
10.078132390975952,-302,2172,371,108856,0
10.117830038070679,-263,2209,323,108839,0
10.157787322998047,-297,2251,353,108664,0
10.196891784667969,-373,2190,413,108509,0
10.236854314804077,-374,2113,415,108449,0
10.276825904846191,-391,1969,467,108456,0
10.316862106323242,-294,1839,457,108489,0
10.35683012008667,-243,1759,355,108494,0
10.397207498550415,-290,1769,345,108485,0
10.436921119689941,-336,1825,375,108456,0
10.477363109588623,-216,1905,352,108449,0
10.516817808151245,-196,2034,257,108487,0
10.556816577911377,-204,2152,216,108557,0
10.596901655197144,-216,2283,213,108643,0
10.636810064315796,-247,2301,284,108721,0
10.67590618133545,-350,2239,147,108665,0
10.715905666351318,-386,2054,56,108471,0
10.755873203277588,-272,1916,8,108315,0
10.795870304107666,-139,1801,-12,108261,0
10.835800647735596,10,1651,-39,108261,0
10.876967191696167,96,1638,-103,108304,0
10.915806531906128,157,1875,-121,108389,0
10.955963850021362,56,2205,-141,108404,0
10.995928287506104,-206,2463,-132,108412,0
11.035812854766846,-408,2520,-64,108418,0
11.076075077056885,-298,2283,-32,108432,0
11.115806818008423,-30,2015,-29,108482,0
11.154789924621582,103,1878,-26,108544,0
11.194812774658203,27,1802,-96,108605,0
11.234858512878418,-23,1812,-159,108624,0
11.27484130859375,-101,1929,-152,108450,0
11.31486439704895,-199,2066,-32,108283,0
11.354832887649536,-227,2183,118,108223,0
11.395015954971313,-149,2159,177,108222,0
11.435242176055908,-127,2071,194,108206,0
11.475589275360107,-141,1979,169,108283,0
11.51483416557312,-172,1866,124,108292,0
11.554891586303711,-141,1781,67,108311,0
11.594770193099976,-47,1815,-6,108354,0
11.633835077285767,-99,1985,33,108435,0
11.673859119415283,-166,2159,173,108520,0
11.714112520217896,-226,2288,242,108612,0
11.753811597824097,-297,2274,227,108679,0
11.794347047805786,-178,2194,98,108769,0
11.833797216415405,-144,2121,11,108785,0
11.873813152313232,-160,2044,40,108632,0
11.915196418762207,-93,1935,51,108442,0
11.954177856445312,-8,1842,28,108374,0
11.994568347930908,-8,1899,99,108421,0
12.033812761306763,-60,2001,218,108487,0
12.072827339172363,-52,2087,222,108583,0
12.112821340560913,-72,2132,195,108637,0
12.152873277664185,-47,2124,136,108646,0
12.192869901657104,30,2088,46,108678,0
12.232874393463135,60,2051,-15,108731,0
12.272789478302002,45,2016,16,108801,0
12.312777996063232,-27,1990,98,108864,0
12.352913618087769,30,1945,147,108918,0
12.393444538116455,109,1943,156,108982,0
12.433627843856812,105,1961,120,108932,0
12.472866535186768,40,2038,128,108781,0
12.51280403137207,35,2111,170,108688,0
12.551785469055176,4,2122,164,108683,0
12.59197735786438,35,2100,117,108739,0
12.631990194320679,30,2062,74,108820,0
12.672384977340698,10,2015,69,108906,0
12.712151288986206,39,1961,40,108938,0
12.751824378967285,67,1943,29,108946,0
12.791836261749268,79,1976,97,108963,0
12.831838130950928,70,2065,177,108999,0
12.871833086013794,-2,2112,208,109063,0
12.912014484405518,-21,2108,142,109116,0
12.952322244644165,-7,2059,98,109187,0
12.990860223770142,50,1984,66,109192,0
13.030835151672363,77,1938,52,109038,0
13.07083511352539,130,1905,53,108904,0
13.110865592956543,91,2032,149,108933,0
13.151453256607056,17,2193,312,108998,0
13.190873146057129,44,2321,394,109061,0
13.230779886245728,28,2336,338,109121,0
13.270893335342407,26,2222,250,109124,0
13.310924053192139,172,2057,202,109091,0
13.350908756256104,211,1913,169,109095,0
13.391377449035645,305,1795,137,109149,0
13.430843353271484,340,1715,73,109223,0
13.469846248626709,231,1714,121,109281,0
13.510136127471924,142,1740,104,109339,0
13.549828052520752,191,1841,46,109416,0
13.589869976043701,364,2062,51,109454,0
13.62981367111206,359,2242,67,109330,0
13.669851779937744,229,2305,147,109180,0
13.710758924484253,147,2271,249,109125,0
13.74985671043396,102,2133,272,109130,0
13.78984260559082,180,1978,189,109163,0
13.829999685287476,297,1831,86,109231,0
13.869829893112183,316,1819,35,109267,0
13.908833503723145,299,1924,88,109310,0
13.9488525390625,286,2049,183,109331,0
13.988847494125366,220,2115,196,109372,0
14.0289466381073,174,2132,165,109437,0
14.06949758529663,178,2079,119,109501,0
14.108834266662598,259,1999,92,109547,0
14.1488676071167,307,1924,76,109598,0
14.188835620880127,378,1872,19,109577,0
14.228890180587769,340,1882,27,109445,0
14.268861293792725,320,1918,85,109272,0
14.308864831924438,221,2008,185,109255,0
14.34784460067749,90,2115,228,109306,0
14.387872219085693,81,2272,216,109400,0
14.427982091903687,130,2359,184,109485,0
14.467845678329468,184,2269,143,109509,0
14.507900953292847,242,2135,139,109479,0
14.547885417938232,415,2013,220,109457,0
14.587869882583618,649,1890,246,109452,0
14.627999544143677,492,1840,302,109473,0
14.667840242385864,228,1967,431,109502,0
14.707842588424683,231,1889,555,109638,0
14.747860193252563,208,1704,390,109615,0
14.788896560668945,721,1743,122,109476,0
14.827080488204956,980,2137,-188,109042,0
14.866866827011108,387,2837,-416,108609,0
14.90687108039856,1056,3244,-922,108533,0
14.946855068206787,499,3569,-750,109020,0
14.986867904663086,626,3627,-542,109587,0
15.027544736862183,879,2743,143,109887,1
15.066889524459839,918,1592,807,109595,1
15.10755968093872,1864,-1940,776,108607,1
15.146884441375732,1178,-9328,1459,108758,1
15.186876773834229,-4354,-5884,3449,109598,1
15.2271409034729,-2289,-3229,5005,109555,1
15.266992807388306,1673,-5099,2099,107945,1
15.305892705917358,311,-2572,565,107738,1
15.345871448516846,239,1295,-207,107924,1
15.385900974273682,613,3368,15,108626,1
15.425910234451294,703,4002,1408,109006,1
15.465933561325073,-97,4394,2249,108957,1
15.505893468856812,-993,4514,2037,108822,1
15.545879125595093,-1419,4003,1340,108980,1
15.586128950119019,-978,3717,721,109555,1
15.62590765953064,-193,3456,1113,109680,1
15.665871858596802,1036,1695,1045,108935,1
15.705921173095703,2123,-3633,195,107982,1
15.745009899139404,116,-9611,1434,107890,1
15.784945726394653,-4506,-3844,4570,108185,1
15.826525688171387,1424,-5679,4326,106870,1
15.864854097366333,585,-4592,604,106235,1
15.904865026473999,932,100,1045,106257,1
15.94490361213684,-347,4024,-804,108123,1
15.984897375106812,582,7805,189,109059,1
16.025497913360596,908,8295,1404,109155,1
16.065902948379517,-1148,5472,-851,109555,1
16.104886054992676,-1784,3852,-189,109845,1
16.14533805847168,876,1288,999,108829,1
16.185956716537476,3629,-6679,-339,106774,1
16.223883152008057,-1375,-9468,3906,107789,1
16.263901710510254,-4452,-3119,5528,107121,1
16.30387020111084,2045,-6598,1791,105544,1
16.34421706199646,680,-3825,1845,105621,1
16.38385772705078,-233,384,1222,105249,1
16.424351453781128,1160,2987,582,106238,1
16.46386456489563,420,5470,832,107737,1
16.50394606590271,-1071,6428,1922,108230,1
16.544164896011353,-1634,5918,1090,108571,1
16.583945989608765,-1995,4495,199,108588,1
16.623876810073853,-642,3767,540,108311,1
16.662886381149292,-77,2284,1281,107765,1
16.70287799835205,2282,-3297,426,106146,1
16.743672370910645,1282,-11790,2020,107093,1
16.78297734260559,-4022,-3074,5373,106624,1
16.822890996932983,1022,-5614,3409,104561,1
16.86334466934204,1669,-4668,934,103696,1
16.902905225753784,207,-1514,1156,103642,1
16.94289469718933,779,1101,677,104023,1
16.983275651931763,830,3085,67,105175,1
17.02289319038391,-26,4218,307,106647,1
17.063070058822632,-833,5609,1067,107304,1
17.11459970474243,-2251,6015,1784,107666,1
17.14226484298706,-2427,4882,1150,107968,1
17.182427644729614,-983,3359,13,108247,1
17.221919536590576,-90,2039,1451,106952,1
17.261911392211914,2175,-1593,612,104969,1
17.30185317993164,2507,-8059,1479,105775,1
17.342544555664062,-3621,-6587,4936,106194,1
17.381901741027832,-279,-6030,2474,104681,1
17.421913862228394,1683,-4615,856,103829,1
17.461954593658447,1059,-1229,1287,103817,1
17.501915454864502,-100,1411,1750,104094,1
17.5418541431427,-44,3010,328,105047,1
17.580901622772217,-1338,4315,1637,106078,1
17.62091636657715,-2025,5088,1482,106946,1
17.66090416908264,-3089,6071,1482,107467,1
17.70090126991272,-2894,5494,443,107654,1
17.74094009399414,-1128,4198,-194,107924,1
17.78090262413025,-1282,1609,1679,107731,1
17.820871829986572,3548,-4728,288,104820,1
17.861032724380493,480,-10831,3242,106068,1
17.900936603546143,-4897,-3509,4804,105850,1
17.941585540771484,913,-7103,2795,103984,1
17.98091149330139,1696,-5132,543,103145,1
18.021021366119385,1310,-49,1342,102875,1
18.060171365737915,522,2341,648,103473,1
18.100142002105713,1207,4467,658,104490,1
18.13993263244629,-418,4690,1837,105511,1
18.180017948150635,-975,4925,2390,106382,1
18.219901084899902,-1703,5340,2510,106870,1
18.260276794433594,-1435,4246,436,107251,1
18.299936056137085,164,3426,-548,107612,1
18.339918851852417,534,2318,1265,107074,1
18.379985809326172,1885,-1504,934,104733,1
18.41995596885681,3447,-10310,1019,105035,1
18.46049451828003,-4868,-6091,5247,106273,1
18.499962329864502,-1252,-4216,3949,105081,1
18.539974451065063,1853,-4859,1972,103701,1
18.57902431488037,240,-2840,1362,103586,1
18.6189227104187,-33,7,1524,103589,1
18.658910274505615,1760,1898,574,104110,1
18.69887900352478,879,2770,698,105174,1
18.738919734954834,-179,4103,1399,106404,1
18.77899694442749,-1292,4999,1730,107212,1
18.819103717803955,-2414,5012,976,107823,1
18.85897135734558,-2226,4860,361,108138,1
18.898967266082764,-944,3955,367,108405,1
18.93894624710083,436,1121,1884,108265,1
18.979074001312256,2224,-3767,916,105859,1
19.018916606903076,1184,-8479,1906,106901,1
19.057966470718384,-2561,-4243,5363,105963,1
19.097917079925537,-65,-4467,3536,103835,1
19.13791799545288,1425,-4773,1048,102830,1
19.178183555603027,730,-2635,1824,103132,1
19.217906713485718,920,498,1426,102926,1
19.25789976119995,958,1382,487,103501,1
19.29790496826172,1033,3014,1245,104313,1
19.338220596313477,-984,4216,865,105604,1
19.378082275390625,-1355,5634,1249,105938,1
19.418212890625,-1466,6341,1334,106246,1
19.45813798904419,-1367,4590,682,106502,1
19.497891902923584,757,2591,318,106540,1
19.53801417350769,2397,-872,1062,105204,1
19.57719850540161,2871,-6796,1709,103442,1
19.61705780029297,-1864,-7911,4020,103754,1
19.656983852386475,-3916,-2644,5240,103227,1
19.69695019721985,1387,-6221,2360,102253,1
19.73708963394165,678,-4878,729,102377,1
19.777941942214966,1109,-988,2243,102419,1
19.817002773284912,1682,1671,216,103024,1
19.857024669647217,1037,2946,171,104114,1
19.89703059196472,1450,4575,1770,104933,1
19.936918258666992,-528,5078,2202,105692,1
19.977449655532837,-1367,6225,1032,106148,1
20.017041206359863,-1045,6193,1478,106435,1
20.056973934173584,-325,4074,1445,106531,1
20.095906496047974,684,-216,-192,105752,1
20.135915994644165,4468,-9463,833,103566,1
20.175939798355103,-2752,-8751,4817,104719,1
20.21601176261902,-4733,-2005,5230,104542,1
20.2559494972229,1490,-6713,3075,102699,1
20.295909881591797,401,-4636,-134,102544,1
20.335957765579224,1539,-855,1738,103096,1
20.375925540924072,1672,1623,115,103668,1
20.41590976715088,2412,3362,656,105049,1
20.4559383392334,1252,4478,1699,106001,1
20.49592089653015,-282,4236,1802,106277,1
20.53598380088806,-1325,5429,2212,106454,1
20.575950860977173,-1328,4895,1174,106628,1
20.61492943763733,-341,3794,707,106933,1
20.655016899108887,152,2753,938,106853,1
20.69494867324829,1685,-1222,911,105263,1
20.735631465911865,2104,-10870,609,104549,1
20.775117874145508,-2173,-6265,5133,106638,1
20.814926624298096,-1172,-3118,4410,106698,1
20.854971885681152,2189,-6783,1270,104990,1
20.894935369491577,1441,-2907,541,104430,1
20.934914350509644,406,488,900,104431,1
20.974896669387817,535,2365,149,104770,1
21.015072107315063,643,3812,748,105577,1
21.055366277694702,460,5277,1938,106503,1
21.09495496749878,-1299,5066,1478,107132,1
21.134143114089966,-3115,5421,1686,107468,1
21.17395782470703,-1442,4248,1052,107355,1
21.213892936706543,326,3147,-87,107518,1
21.253995180130005,878,2306,1099,107613,1
21.29410409927368,1794,-411,1084,106512,1
21.334127187728882,2343,-7806,451,104752,1
21.37415862083435,-1636,-7827,4217,105347,1
21.414008140563965,-3666,-1107,4839,105269,1
21.453981161117554,1267,-5825,2804,104679,1
21.49402356147766,1429,-4910,1461,104304,1
21.53407049179077,1064,-2480,691,104099,1
21.57393717765808,1163,778,267,104245,1
21.614058017730713,1400,2776,145,105236,1
21.652944564819336,574,5530,1072,106659,1
21.693471431732178,-798,5757,1277,107285,1
21.732942819595337,-1553,6514,1346,107641,1
21.773256540298462,-1580,5511,691,107843,1
21.812978267669678,-723,4571,-205,108085,1
21.853119373321533,403,3114,1379,108235,1
21.893571376800537,1952,-2839,131,107356,1
21.932958126068115,1194,-12638,173,106053,1
21.973089456558228,-2731,-3576,8571,104824,1
22.013246536254883,375,-5382,3924,103051,1
22.05296230316162,2278,-5764,-1368,103109,1
22.093550443649292,78,-1881,1583,103944,1
22.13292407989502,2113,772,1520,105062,1
22.173069953918457,1129,2000,730,106403,1
22.211944580078125,859,3431,1066,107447,1
22.252197980880737,432,4559,1375,107802,1
22.29214072227478,-1020,5821,2049,108008,1
22.332114458084106,-2865,6560,2597,108495,1
22.37224006652832,-2116,6708,880,109358,1
22.411938190460205,82,3055,-1278,108891,1
22.451974391937256,4336,-10520,448,106100,1
22.49197483062744,-2287,-10613,2710,104719,1
22.532123565673828,-2723,-2843,6984,104329,1
22.572087049484253,3452,-7030,443,104189,1
22.611958026885986,-134,-996,1082,105310,1
22.65209650993347,210,1532,3020,105851,1
22.691953659057617,775,1494,2575,106196,1
22.730947017669678,688,1970,2506,106601,1
22.771345615386963,568,2933,2270,107058,1
22.81122398376465,-241,2894,1727,107956,1
22.85105609893799,-927,3543,1370,108699,1
22.890976190567017,-1617,4111,1551,108956,1
22.93111228942871,-1327,4252,1311,109112,1
22.970937490463257,-486,4291,379,109250,1
23.01137685775757,280,3029,-230,109144,1
23.05126953125,1608,-202,550,107579,1
23.09095025062561,2486,-10369,716,106020,1
23.130966186523438,-3819,-7668,4419,107213,1
23.171109199523926,-2355,-1978,6178,106475,1
23.211008548736572,3663,-7296,958,103699,1
23.25008463859558,1169,-2283,-396,104180,1
23.290066957473755,-267,932,2177,104401,1
23.330302953720093,1008,1916,1101,104640,1
23.370060443878174,566,2427,1795,104996,1
23.410422801971436,210,2919,2111,105296,1
23.450058460235596,594,2909,2182,105719,1
23.489922523498535,46,3129,2130,106307,1
23.53038740158081,-1124,3649,1249,107146,1
23.56995415687561,-1734,4107,1265,107540,1
23.61035990715027,-759,4719,1640,107764,1
23.6500825881958,119,3697,911,107886,1
23.690093278884888,605,1378,601,107726,1
23.730003595352173,2961,-9109,-117,105510,1
23.769102811813354,-3212,-9899,3674,105216,1
23.809296369552612,-3160,-1471,6118,105409,1
23.84904384613037,3413,-6168,1955,102820,1
23.88894295692444,1184,-3559,-497,103145,1
23.92911195755005,755,-162,2245,103523,1
23.969343423843384,1614,1468,1052,104184,1
24.009049654006958,502,2049,1023,105329,1
24.04894495010376,591,2925,1686,106293,1
24.088923692703247,55,3397,2030,106795,1
24.129135370254517,-840,3833,1835,107090,1
24.16939115524292,-1144,3918,1447,107317,1
24.209012269973755,-2147,3576,1361,107601,1
24.249096632003784,-1434,3458,1462,107873,1
24.2879536151886,271,2513,567,107499,1
24.328101873397827,890,1242,900,106095,1
24.36806344985962,2535,-4886,-278,105199,1
24.408211946487427,-138,-9048,2019,105310,1
24.447982788085938,-2717,-2776,5541,105677,1
24.48799419403076,1731,-4963,2031,104155,1
24.52835488319397,2201,-4042,-59,103993,1
24.568563222885132,740,-711,1922,104237,1
24.607925176620483,967,1336,1052,104649,1
24.6479594707489,1129,1974,1500,105282,1
24.68805170059204,142,2589,2089,105838,1
24.728108644485474,319,3227,2213,106170,1
24.76797127723694,-160,3588,2492,106231,1
24.80800151824951,-1515,3797,1663,106950,1
24.8470938205719,-1787,3769,706,107842,1
24.887112379074097,-943,3556,1071,108195,1
24.92736577987671,518,3328,1655,108308,1
24.966951847076416,753,1812,855,108181,1
25.006963968276978,1840,-5039,-97,106146,1
25.047114849090576,-106,-10108,1743,105161,1
25.087132453918457,-2707,-1723,4736,105362,1
25.127362966537476,512,-4256,3164,104564,1
25.16707682609558,2353,-4765,662,103829,1
25.207093477249146,948,-1843,1944,104272,1
25.246941804885864,1061,249,1621,104270,1
25.287107944488525,790,1759,957,105033,1
25.328177452087402,360,2774,1547,105912,1
25.365975856781006,-17,3366,1877,107076,1
25.405977249145508,-398,4192,1223,107996,1
25.44597816467285,-1433,5282,1411,108287,1
25.48597550392151,-1697,5169,1722,108394,1
25.525986433029175,-939,5186,1633,108495,1
25.56607699394226,145,3228,838,108398,1
25.605960845947266,3435,-3735,-419,107101,1
25.646071910858154,1692,-12951,156,105551,1
25.685997247695923,-5262,-3904,6484,106530,1
25.726075649261475,2094,-8329,3641,103856,1
25.76611876487732,1554,-4547,-2262,103703,1
25.806089878082275,53,820,1938,104115,1
25.84609627723694,1459,3089,1571,104765,1
25.886826276779175,1274,4179,3464,105556,1
25.92508840560913,1734,4568,3416,106497,1
25.965065956115723,212,4811,2753,107565,1
26.004995346069336,-1225,5155,723,108151,1
26.044991970062256,-779,4662,-814,108405,1
26.08500862121582,113,3560,503,108170,1
26.12497854232788,349,-2097,-335,106340,1
26.16498637199402,2637,-11301,-739,105296,1
26.205118894577026,-2318,-5156,6383,105398,1
26.245096445083618,-1836,-3649,5443,104397,1
26.285074472427368,1996,-7093,-514,104135,1
26.32498812675476,185,-2655,1688,104533,1
26.365089893341064,940,1906,1690,104752,1
26.405073642730713,2225,3653,866,105688,1
26.444191932678223,1433,5033,1968,106749,1
26.4840886592865,-84,4971,2335,107761,1
26.524137496948242,-191,5394,2141,108065,1
26.56408166885376,-19,4407,603,108177,1
26.60409951210022,-724,3501,-485,108625,1
26.644593000411987,275,2239,-406,108346,1
26.68407940864563,1856,-1623,1009,106837,1
26.7240891456604,-336,-9864,2642,106138,1
26.77825140953064,-2481,-4696,5354,105468,1
26.809576988220215,-1935,-2277,3574,104934,1
26.844295978546143,468,-6339,2290,104586,1
26.88408088684082,1212,-4605,2237,104215,1
26.924103498458862,1785,-1247,2255,103912,1
26.96307396888733,1852,827,1831,103972,1
27.00311303138733,1518,2748,1454,104398,1
27.043116092681885,1121,4109,431,105737,1
27.083080530166626,-63,5053,350,106636,1
27.123061656951904,-1885,5628,1619,106996,1
27.16308879852295,-1640,4992,923,107202,1
27.203773975372314,-1476,3695,-229,107407,1
27.243114233016968,177,3072,288,107395,1
27.283029794692993,928,1786,837,106517,1
27.323260068893433,893,-2541,845,105584,1
27.363091707229614,1754,-10327,1024,104782,1
27.40307331085205,-2871,-4075,4017,104675,1
27.443068265914917,-1790,-2667,4515,104414,1
27.482078552246094,1754,-5855,1921,103604,1
27.522077798843384,1547,-2800,1023,103574,1
27.562087297439575,613,-195,2131,103618,1
27.60203528404236,975,825,1175,104018,1
27.642062664031982,1766,2167,961,104552,1
27.68208646774292,804,3823,1340,105439,1
27.722439765930176,504,4358,1656,106357,1
27.76215362548828,-654,4353,1874,106775,1
27.802136421203613,-1342,4119,1369,106417,1
27.84206795692444,-475,3530,1143,105403,1
27.882126331329346,435,3076,694,105218,1
27.9220609664917,810,2097,302,105242,1
27.962173223495483,1212,1088,580,105063,1
28.001044511795044,810,-2858,201,104424,1
28.041073083877563,-97,-8790,673,104023,1
28.0810809135437,-2533,-4212,3819,104277,1
28.12108540534973,-1309,-2147,4102,104400,1
28.161293745040894,1166,-4827,2337,103863,1
28.201081037521362,1357,-4166,545,103641,1
28.241089582443237,1007,-1142,1551,103721,1
28.28103756904602,458,717,1164,103835,1
28.32107949256897,1462,2125,254,104264,1
28.361425638198853,1372,3226,1814,104844,1
28.401069402694702,710,4234,2286,105667,1
28.441083431243896,-766,4485,1640,106615,1
28.48107099533081,-1067,4657,1300,107024,1
28.52105975151062,-1630,4043,943,107254,1
28.560293436050415,71,3255,893,107002,1
28.60006809234619,1175,2017,1227,106345,1
28.640876531600952,690,-4252,-754,104978,1
28.68006682395935,710,-9134,1486,104330,1
28.72007727622986,-3797,-4155,5968,104442,1
28.760161876678467,845,-6078,3032,102991,1
28.8000807762146,797,-4111,-288,103348,1
28.84006977081299,1120,-46,2696,103445,1
28.88006067276001,1353,2102,988,103964,1
28.920084476470947,1038,2861,779,104707,1
28.96048903465271,1138,3208,2110,105151,1
29.00006341934204,145,3510,2457,105717,1
29.04012441635132,-976,3711,1628,106619,1
29.079466819763184,-887,3789,456,106903,1
29.119033575057983,-991,3946,5,106281,1
29.159053564071655,-374,3555,372,106271,1
29.199028253555298,894,2263,563,105514,1
29.23906946182251,2329,-6600,211,104148,1
29.279094219207764,-2115,-8516,2574,104062,1
29.319100379943848,-2578,-1939,5295,103969,1
29.359089374542236,1356,-4692,2412,103959,1
29.399274587631226,469,-4203,836,104266,1
29.439104080200195,1114,-1070,3537,104278,1
29.47921371459961,982,439,1908,104434,1
29.519259452819824,1112,1919,1504,104729,1
29.55907702445984,909,2596,1550,105090,1
29.598083019256592,1071,3269,2120,105328,1
29.63829469680786,-36,3526,1514,105873,1
29.67850685119629,-1203,3701,522,106803,1
29.71807050704956,-908,4376,169,107552,1
29.758086919784546,-1020,4309,823,107767,1
29.798078775405884,-131,3514,904,107757,1
29.83830976486206,1309,526,-146,107228,1
29.87812066078186,336,-5948,14,105483,1
29.918087482452393,-460,-7976,2968,105036,1
29.958158016204834,-2237,-2198,6436,104697,1
29.998071432113647,889,-5221,2554,103307,1
30.038125038146973,460,-4637,455,103251,1
30.07758069038391,1041,-2187,2891,103374,1
30.117039442062378,1472,255,1654,103226,1
30.1570463180542,1258,1460,1266,103738,1
30.197093725204468,1509,2522,1875,104297,1
30.237050771713257,765,3410,2277,105348,1
30.27730679512024,394,3321,1041,106182,1
30.317059993743896,-329,3411,226,106194,1
30.35711145401001,-943,3522,624,105986,1
30.397061347961426,-1252,3568,728,105688,1
30.437071800231934,-538,3461,744,105145,1
30.4774010181427,-448,2674,1242,104814,1
30.51709008216858,648,-5,878,104602,1
30.55610680580139,2541,-7603,1395,104315,1
30.59615659713745,-1496,-6863,3709,104556,1
30.636078357696533,-3255,-2020,4452,104709,1
30.676124334335327,578,-4558,3235,103942,1
30.71607756614685,813,-4266,1211,103498,1
30.756374835968018,601,-1676,2138,103224,1
30.796103954315186,928,121,1743,102979,1
30.836113452911377,1686,1563,1199,103147,1
30.876094102859497,990,2368,1674,103625,1
30.916096448898315,519,3437,2400,104240,1
30.956085920333862,73,3675,2275,105182,1
30.99606418609619,-880,3401,1276,105762,1
31.036734104156494,-1356,3252,560,106041,1
31.07508635520935,-1410,3455,1044,106292,1
31.115074157714844,-476,2601,1810,106301,1
31.155044555664062,1071,-157,834,105692,1
31.19507598876953,1749,-5982,889,104844,1
31.23515510559082,-1095,-6025,3405,105099,1
31.27510118484497,-2702,-1638,4025,104560,1
31.315059185028076,418,-3917,2794,103355,1
31.355062246322632,1110,-4048,1600,103115,1
31.395055055618286,948,-1742,2014,102992,1
31.435038089752197,792,92,1860,102987,1
31.47512149810791,886,890,1519,103183,1
31.515077114105225,452,2279,1710,103602,1
31.554068565368652,499,2846,1692,104242,1
31.594761610031128,206,3050,1951,104882,1
31.634177684783936,-624,2956,1732,104614,1
31.67407989501953,-958,2576,1117,104310,1
31.71407914161682,-1135,2466,1041,104398,1
31.754069805145264,-1089,2887,1829,104640,1
31.794177532196045,-388,2065,1848,104836,1
31.834084510803223,-123,890,1474,104773,1
31.874077796936035,1790,-3886,1001,103895,1
31.914088249206543,386,-6792,1835,103730,1
31.95412015914917,-2728,-2265,3481,103717,1
31.994613647460938,-1368,-2419,3363,103360,1
32.033066749572754,1049,-4792,3161,102649,1
32.073089838027954,1250,-3346,1792,102261,1
32.113088846206665,1182,-1078,1601,102393,1
32.1531286239624,848,1158,1772,102740,1
32.19377040863037,450,2696,1199,103467,1
32.233030796051025,955,3346,2369,104075,1
32.273099184036255,703,3889,3283,104552,1
32.31312656402588,-179,3781,2137,105438,1
32.35307288169861,-871,3660,865,106157,1
32.39306688308716,-783,3671,1155,106429,1
32.43305468559265,-161,2732,1273,106070,1
32.473076581954956,1112,1111,1098,104559,1
32.512163162231445,878,-2893,533,104238,1
32.5521719455719,790,-7881,802,104104,1
32.592103481292725,-3456,-4454,3634,104249,1
32.632216453552246,-2183,-2804,4175,103255,1
32.6720814704895,1843,-4820,1245,102388,1
32.71294379234314,545,-2089,1323,102877,1
32.752201318740845,697,19,2117,102762,1
32.79214930534363,597,1198,956,103125,1
32.83216118812561,1240,2068,1784,103729,1
32.87207770347595,518,3001,2796,104087,1
32.91210722923279,316,2842,2651,104046,1
32.95219159126282,-492,2849,2124,104203,1
32.9921600818634,-1029,2666,1486,104598,1
33.0311713218689,-1744,2857,1347,105110,1
33.071155309677124,-856,3514,2061,105599,1
33.111384868621826,-335,2530,1476,106073,1
33.15116262435913,12,986,981,105601,1
33.19112992286682,1535,-1347,1325,104818,1
33.23119640350342,1801,-7075,503,104764,1
33.27120876312256,-1994,-5186,2447,105187,1
33.311466217041016,-2225,-1758,3405,104399,1
33.35113978385925,1257,-4497,2243,103138,1
33.39113259315491,1147,-2946,1369,102897,1
33.43121647834778,830,-1206,2464,102879,1
33.47112727165222,1332,437,2331,102944,1
33.510815382003784,1276,1778,1810,103378,1
33.550236225128174,1009,2318,1474,104055,1
33.590264081954956,828,3405,1762,104938,1
33.63019418716431,29,4379,1979,105662,1
33.67020773887634,-884,4507,1665,106158,1
33.71068286895752,-914,4617,1843,106513,1
33.7501335144043,454,3304,2459,105822,1
33.79018473625183,980,-1813,693,103603,1
33.83029246330261,1374,-8213,-467,103826,1
33.870261669158936,-2161,-6053,2895,104282,1
33.91069054603577,-2646,-2570,4281,103691,1
33.949162006378174,1125,-6303,2119,102474,1
33.98918533325195,-159,-3967,-427,102760,1
34.029149532318115,703,71,1817,102940,1
34.06914234161377,1560,2131,1330,103424,1
34.10920286178589,2114,3567,2131,104167,1
34.149131536483765,1457,5257,3446,104801,1
34.189136266708374,144,4898,2564,105135,1
34.22913885116577,-311,4428,1614,105401,1
34.269163370132446,-1106,3898,50,106112,1
34.30923366546631,-595,2989,1001,106179,1
34.349125146865845,1494,-38,174,105954,1
34.389169692993164,1215,-3793,686,104695,1
34.42838168144226,1206,-7868,2678,104732,1
34.46818709373474,-2619,-3598,4874,105130,1
34.508158683776855,-1051,-4529,3250,104167,1
34.54821276664734,618,-5102,1323,104019,1
34.58819127082825,240,-2413,2027,103610,1
34.628453969955444,1348,-222,1644,103203,1
34.66818451881409,693,1667,414,103439,1
34.708252906799316,1236,2587,1448,103910,1
34.748130798339844,736,3355,2478,104287,1
34.78812503814697,83,3323,2219,104930,1
34.828373193740845,-385,3287,1851,105728,1
34.8682177066803,-840,3438,1367,106264,1
34.90822410583496,-907,3109,1352,106552,1
34.94713282585144,-233,3362,1947,106522,1
34.98723006248474,275,2236,1244,105698,1
35.02791166305542,68,539,621,104672,1
35.0671648979187,1636,-1817,1090,104083,1
35.10715651512146,1862,-6959,923,104120,1
35.14716410636902,-1805,-5161,3064,104789,1
35.18713116645813,-2063,-2783,3607,104536,1
35.2275128364563,977,-5282,2277,104115,1
35.26718235015869,769,-3336,1691,104014,1
35.30713677406311,776,-888,2004,103757,1
35.347119092941284,656,1380,1356,103968,1
35.38719367980957,742,2936,1474,104479,1
35.426236152648926,833,4521,2128,104819,1
35.46642732620239,589,4769,3108,104765,1
35.50615167617798,-198,4143,2874,104976,1
35.546207666397095,-1537,3295,1409,105987,1
35.58613061904907,-1356,2923,124,106972,1
35.62625789642334,99,2269,462,107028,1
35.66617178916931,1421,1038,1058,106122,1
35.706127882003784,1858,-4051,361,104733,1
35.74623918533325,-230,-8743,2414,104830,1
35.78617572784424,-3262,-3239,5896,104861,1
35.8262403011322,-595,-4503,3537,103842,1
35.86619186401367,92,-5590,1059,103656,1
35.9052472114563,1154,-2515,2689,103349,1
35.94529175758362,2022,255,2236,103189,1
35.985130071640015,1292,2358,733,103703,1
36.025113344192505,1872,3148,530,104601,1
36.06518602371216,1467,4367,2369,105302,1
36.10515856742859,129,4376,2780,106033,1
36.145442962646484,-764,3867,1250,106560,1
36.18523406982422,-588,3526,689,106793,1
36.22512221336365,69,2825,996,106906,1
36.26514148712158,1133,1586,977,105685,1
36.30515789985657,1504,-924,1039,104115,1
36.345210552215576,1550,-5385,1170,103582,1
36.384148359298706,-1209,-5834,3728,103941,1
36.42415904998779,-2006,-2823,4837,103682,1
36.46415424346924,288,-4311,2188,103688,1
36.504130363464355,667,-3128,1786,103686,1
36.54422879219055,1490,-1108,2367,103603,1
36.5841326713562,689,162,1238,103798,1
36.62412238121033,893,926,1219,104090,1
36.66415548324585,336,2264,1979,104361,1
36.70412635803223,-407,2941,2050,104521,1
36.7443573474884,-532,3959,2065,104661,1
36.78414750099182,-1184,4001,1996,105106,1
36.82415437698364,-1352,3611,1502,106027,1
36.86333417892456,-783,3367,1573,106717,1
36.94135117530823,-265,2509,1366,106786,1
36.94321823120117,228,1146,1934,105994,1
36.98316431045532,996,-1657,698,104864,1
37.02314376831055,912,-5754,1455,104113,1
37.06318259239197,-1319,-4266,3844,104253,1
37.10317897796631,-2464,-3075,3534,104133,1
37.14336180686951,513,-4146,1890,103661,1
37.183117151260376,3,-3046,1966,103602,1
37.223191261291504,1349,-1123,2444,103494,1
37.263108253479004,1442,833,1141,103845,1
37.303122758865356,1772,2660,1411,104606,1
37.342254877090454,846,3800,2340,105563,1
37.38215351104736,13,4057,1953,106422,1
37.422173261642456,-275,3606,850,106851,1
37.462124824523926,-1016,3429,825,107119,1
37.50221061706543,-566,3304,1529,107265,1
37.54214358329773,-122,2160,1431,107017,1
37.58211922645569,944,-58,932,105211,1
37.62220788002014,1451,-5335,1336,104321,1
37.66215777397156,-1081,-5868,3664,104857,1
37.70219588279724,-3126,-2158,4179,104790,1
37.74217200279236,-350,-4316,2789,104046,1
37.782134771347046,743,-4379,695,103905,1
37.822211265563965,1428,-1631,1595,103931,1
37.861764430999756,1123,517,1154,104240,1
37.90113639831543,1798,1890,467,105097,1
37.94115328788757,1248,3321,2084,105478,1
37.98111820220947,934,3634,3051,105343,1
38.02112889289856,262,3522,2445,105459,1
38.06132531166077,-108,3135,1252,106323,1
38.10113477706909,-301,2590,64,107143,1
38.141114950180054,162,2658,1022,107335,1
38.181105852127075,7,1896,1849,107079,1
38.22111892700195,883,722,1073,106503,1
38.2616400718689,980,-1747,1187,105460,1
38.30114698410034,2088,-7704,1007,104843,1
38.34022665023804,-2342,-4307,5487,105015,1
38.380167961120605,-1376,-3273,4511,104020,1
38.42012357711792,702,-5691,738,103774,1
38.460330963134766,278,-2724,1534,103982,1
38.500176191329956,1122,409,2409,103937,1
38.54015851020813,1698,2310,632,104799,1
38.580116271972656,1604,3295,842,106002,1
38.62016439437866,1107,3966,1852,106827,1
38.66076946258545,-650,3845,2260,107335,1
38.70014977455139,-1148,3888,1642,107599,1
38.74013113975525,-797,3192,499,107819,1
38.78023862838745,-236,3424,694,108059,1
38.820138454437256,130,3065,1267,107070,1
38.85916590690613,985,1141,1230,105445,1
38.89912009239197,2077,-4533,729,104609,1
38.93917489051819,-299,-8766,1583,104963,1
38.97914171218872,-2975,-2287,5474,104790,1
39.01910901069641,291,-4542,2987,104061,1
39.059128522872925,664,-5121,152,104501,1
39.09912729263306,951,-2032,2334,104427,1
39.139108180999756,1398,501,1789,104292,1
39.17909526824951,836,2014,624,104710,1
39.219215631484985,531,2938,1601,104959,1
39.25950264930725,783,3781,2296,105147,1
39.29910731315613,266,4163,2405,105641,1
39.33912968635559,-753,4049,1149,106711,1
39.37833094596863,-844,3278,-391,107307,1
39.41816234588623,-1336,3538,737,107605,1
39.45822024345398,-301,3033,1224,107622,1
39.49814820289612,1625,1184,821,107529,1
39.53814697265625,777,-1815,343,106796,1
39.57840824127197,3362,-8772,698,105506,1
39.618173360824585,-575,-5457,6111,105864,1
39.658185958862305,-2436,-2202,4448,104641,1
39.698394536972046,372,-5777,891,103828,1
39.73814010620117,273,-2804,2926,103749,1
39.77837347984314,2274,275,2300,103315,1
39.81826090812683,1738,1647,1561,103516,1
39.85810875892639,827,2462,1226,104068,1
39.897098541259766,778,3058,793,105014,1
39.93717098236084,-81,3734,840,106045,1
39.97742295265198,-1097,4717,1394,106618,1
40.01711368560791,-1027,4494,652,106911,1
40.05711102485657,-510,4469,523,106744,1
40.09715461730957,-615,4648,1225,105841,1
40.13715648651123,340,2399,575,105567,1
40.177573919296265,1435,-3614,527,104538,1
40.21713185310364,950,-13241,3197,104322,1
40.25715613365173,-5033,-1948,5215,104219,1
40.29711651802063,841,-6294,2180,102808,1
40.33720397949219,-678,-6137,-1446,102611,1
40.37622261047363,1374,-1814,1866,102374,1
40.4161810874939,1968,1126,1642,102459,1
40.45617985725403,1648,3343,2573,102910,1
40.49615263938904,1803,3732,3018,103406,1
40.53633999824524,-164,3801,3384,103988,1
40.57616066932678,-1031,3969,2652,105045,1
40.61618232727051,-1122,4210,1043,106035,1
40.656163930892944,-462,4399,1349,106330,1
40.69614768028259,553,3121,740,106520,1
40.736119747161865,1385,768,856,106311,1
40.77611565589905,888,-2836,491,104509,1
40.816184520721436,1467,-8440,1881,104025,1
40.85621452331543,-1683,-3069,6436,103118,1
40.89529800415039,-1153,-2339,2657,102247,1
40.93518280982971,131,-4015,1163,102283,1
40.975112199783325,89,-3603,2633,102200,1
41.015164613723755,2030,-2392,1679,102481,1
41.05515503883362,1103,-358,2213,103002,1
41.095160484313965,219,1020,1117,103337,1
41.13515496253967,1620,2176,778,103838,1
41.17518067359924,857,2866,1517,104279,1
41.215139389038086,162,4180,2078,105079,1
41.25513815879822,53,4420,1620,105838,1
41.29514741897583,-911,4321,1480,106102,1
41.3352165222168,-1304,4199,1505,105854,1
41.3741729259491,-467,4139,1637,105677,1
41.41410231590271,504,1674,1095,105573,1
41.4542601108551,579,-2804,-108,104586,1
41.49445295333862,2233,-9304,1292,104134,1
41.53428292274475,-2713,-2488,4427,104543,1
41.57434129714966,-2274,-1707,2150,103948,1
41.61415433883667,1009,-4624,2298,103612,1
41.65417981147766,-705,-5283,1866,102986,1
41.694520711898804,1557,-2207,110,102265,1
41.734145641326904,1520,931,2423,102333,1
41.77429819107056,1462,2353,1795,102394,1
41.8141827583313,2051,2478,2207,102719,1
41.854196548461914,381,3190,1877,103513,1
41.89343881607056,-163,3678,2007,104355,1
41.93319869041443,-546,4125,1857,105222,1
41.97317910194397,-674,4378,1157,105977,1
42.01315402984619,-1033,4529,648,106611,1
42.05312776565552,2,3638,1409,106779,1
42.09320902824402,1187,2111,830,105976,1
42.13322401046753,229,-1620,-354,104685,1
42.17313361167908,2624,-9241,570,104090,1
42.21325612068176,-1004,-5674,4448,104330,1
42.25314903259277,-2166,-691,2801,103685,1
42.29321813583374,210,-3126,1874,103292,1
42.333168029785156,-547,-3974,2533,103327,1
42.372145891189575,901,-4797,1192,102527,1
42.41230869293213,1178,-1619,1771,102278,1
42.452141523361206,314,734,1912,102377,1
42.49214196205139,2205,1828,1158,102653,1
42.53219223022461,670,2361,960,103200,1
42.57219576835632,846,3986,1327,103783,1
42.61220192909241,875,4751,2493,104256,1
42.65221881866455,597,4627,2234,105067,1
42.69217014312744,242,4230,863,105954,1
42.73213267326355,-509,3884,937,106351,1
42.77225732803345,217,2915,1283,106484,1
42.81227111816406,1441,-457,167,105841,1
42.85117840766907,599,-8238,-263,104339,1
42.89118456840515,-1369,-7905,3679,104370,1
42.93121910095215,-4571,-1914,3342,103705,1
42.97118306159973,1162,-7308,2116,102584,1
43.01161026954651,-181,-4652,1736,102574,1
43.05132079124451,2578,-837,2093,102219,1
43.09113788604736,2140,2189,1088,102646,1
43.131162881851196,1635,3028,1775,103092,1
43.171162128448486,941,3694,2422,103660,1
43.211220502853394,-517,2701,1613,104791,1
43.25116443634033,-234,3134,1413,105456,1
43.2901566028595,-659,3226,1963,105433,1
43.33025527000427,-1390,3411,470,104861,1
43.370179414749146,-249,3306,588,104509,1
43.41029357910156,-213,2749,875,104566,1
43.45017218589783,20,2434,218,104821,1
43.490219593048096,2072,2233,1057,104751,1
43.53017997741699,757,-779,1275,104211,1
43.57016897201538,3597,-5667,1029,104041,1
43.61033225059509,-1211,-6602,3832,104252,1
43.65017771720886,-1388,-642,1985,103962,1
43.69020986557007,337,-244,1677,103637,1
43.73047733306885,2184,-632,2494,103302,1
43.76920032501221,1253,-733,1873,103147,1
43.80919909477234,-268,-852,1861,103398,1
43.84930157661438,271,-859,2293,103565,1
43.88916301727295,386,-1228,2206,103664,1
43.929250955581665,187,-1643,2056,103822,1
43.96918296813965,652,-1114,2055,103966,1
44.00921821594238,459,-621,2085,103979,1
44.04914569854736,612,-219,1829,103925,1
44.08930063247681,481,120,1929,104046,1
44.12927031517029,393,478,2107,103989,1
44.16919207572937,791,627,1965,104087,1
44.20927667617798,502,754,1942,104492,1
44.24812388420105,593,697,1224,104843,1
44.28816294670105,514,669,710,105353,1
44.328487396240234,145,838,644,105894,1
44.36818051338196,141,1084,418,105995,1
44.4081871509552,509,2021,-96,106074,1
44.44814872741699,-88,2552,168,106320,1
44.48811221122742,-382,2571,121,106280,1
44.52819299697876,450,2698,-344,106138,1
44.56821584701538,367,2679,119,106244,1
44.6081907749176,-551,2516,352,106297,1
44.64833092689514,-723,2492,137,106332,1
44.688267946243286,-562,2833,-221,106521,1
44.72737216949463,-849,2902,-40,106703,1
44.767189264297485,-517,2436,-145,106801,1
44.80723166465759,-346,1986,48,106878,1
44.84715938568115,-261,1705,105,106843,1
44.887237787246704,-100,1806,-30,106714,1
44.927408933639526,-156,1987,53,106479,1
44.9672954082489,-213,2137,157,106371,1
45.00715708732605,-189,2119,160,106397,2
45.04742622375488,-75,2104,291,106445,2
45.087482929229736,113,1992,109,106491,2
45.12792205810547,234,2011,13,106601,2
45.16716170310974,335,1888,-62,106679,2
45.20617628097534,459,1799,-61,106737,2
45.24622583389282,316,1842,-91,106821,2
45.28616523742676,310,1860,-185,106849,2
45.326181173324585,411,1908,-32,106709,2
45.3661527633667,318,1875,228,106705,2
45.40620470046997,341,1873,292,106789,2
45.446229219436646,429,1874,286,106930,2
45.486287355422974,397,1904,261,107054,2
45.526206254959106,395,1951,203,107174,2
45.56619644165039,427,1960,243,107247,2
45.60617136955261,539,2049,174,107369,2
45.64614415168762,436,2063,327,107519,2
45.685205936431885,503,2021,455,107570,2
45.72518801689148,621,1905,529,107385,2
45.76515221595764,633,1774,374,107306,2
45.80520725250244,504,1700,186,107403,2
45.84562683105469,500,1748,91,107500,2
45.88516640663147,471,1851,34,107644,2
45.92530918121338,343,1937,155,107771,2
45.9651415348053,301,1990,252,107829,2
46.00521230697632,372,2008,215,107888,2
46.045438051223755,377,2021,83,107916,2
46.08518195152283,364,2077,-56,107924,2
46.12522315979004,258,2177,-129,107760,2
46.164283752441406,-42,2217,36,107783,2
46.20424437522888,-149,2170,152,107873,2
46.24496531486511,83,2016,-9,107966,2
46.284236907958984,223,1945,-94,108077,2
46.3245530128479,258,1974,-112,108188,2
46.3641722202301,136,2057,-10,108285,2
46.40417718887329,-16,2157,85,108339,2
46.44449162483215,-103,2190,114,108363,2
46.48419380187988,23,2131,38,108320,2
46.5241973400116,103,2074,96,108043,2
46.564167499542236,145,2032,92,108029,2
46.603182554244995,146,2105,128,108125,2
46.64321208000183,14,2159,103,108272,2
46.68322968482971,-104,2230,101,108413,2
46.723180294036865,-78,2235,175,108508,2
46.763113498687744,88,2142,95,108531,2
46.8032386302948,0,2100,151,108575,2
46.870784282684326,-31,1978,287,108603,2
46.88784694671631,101,1816,250,108495,2
46.9232120513916,157,1667,232,108206,2
46.963237047195435,278,1652,30,108133,2
47.00322103500366,24,1818,106,108292,2
47.0431854724884,-39,1965,249,108443,2
47.082226276397705,145,1981,196,108584,2
47.12222099304199,242,2063,110,108688,2
47.162174463272095,120,2237,68,108750,2
47.202211141586304,18,2265,136,108791,2
47.24216270446777,86,2225,25,108806,2
47.28220176696777,37,2164,29,108728,2
47.322229862213135,55,2123,57,108476,2
47.36241030693054,101,2032,57,108409,2
47.40216302871704,126,1968,30,108467,2
47.44216752052307,152,1906,31,108560,2
47.48216104507446,181,1897,19,108633,2
47.52218317985535,172,1934,-41,108690,2
47.561192750930786,54,1992,-17,108659,2
47.601205587387085,85,2072,13,108559,2
47.641379594802856,92,2158,156,108550,2
47.68118977546692,155,2168,94,108453,2
47.72118353843689,88,2040,128,108182,2
47.76118063926697,85,1980,-50,108119,2
47.80125379562378,201,1960,-158,108229,2
47.84124422073364,254,2042,-193,108352,2
47.8811993598938,277,2148,-141,108549,2
47.92117476463318,357,2222,27,108677,2
47.961801528930664,481,2156,170,108742,2
48.001203536987305,443,2151,312,108808,2
48.040218114852905,355,2124,416,108847,2
48.08019948005676,181,2106,360,108811,2
48.12018823623657,218,1942,271,108529,2
48.160507917404175,381,1808,50,108326,2
48.20020914077759,395,1751,-196,108330,2
48.240222692489624,268,1712,-264,108449,2
48.28035044670105,456,1677,-371,108641,2
48.32019758224487,660,1606,-417,108769,2
48.36035656929016,869,1552,-393,108835,2
48.40023064613342,1027,1612,-364,108887,2
48.440253257751465,754,1893,-252,108914,2
48.48018479347229,177,2230,15,108839,2
48.5191912651062,-27,2490,-120,108501,2
48.559216022491455,-34,2464,-453,108287,2
48.59919714927673,10,2176,-636,108136,2
48.63928461074829,238,1979,-700,108101,2
48.67925214767456,336,1913,-451,108225,2
48.71934461593628,371,1966,-338,108238,2
48.759371757507324,210,1998,-380,108193,2
48.799285650253296,125,2021,-505,108117,2
48.83926796913147,82,2023,-429,108104,2
48.87928795814514,158,2029,-406,107820,2
48.919193267822266,230,2071,-475,107182,2
48.958261489868164,167,2050,-510,106949,2
48.99819493293762,116,2047,-507,107128,2
49.03820252418518,145,2023,-460,107398,2
49.07844948768616,196,1933,-443,107696,2
49.118200063705444,245,1892,-509,107789,2
49.158207416534424,303,1863,-570,107792,2
49.19824004173279,325,1920,-504,107799,2
49.238248348236084,208,2012,-474,107923,2
49.27826929092407,48,2052,-409,107871,2
49.31830835342407,109,2016,-400,107256,2
49.358293771743774,211,1998,-363,107195,2
49.39824867248535,210,1975,-366,107417,2
49.437201261520386,346,2004,-329,107887,2
49.477351903915405,686,2080,-289,108580,2
49.51718711853027,391,2142,354,108847,2
49.55724334716797,291,2142,560,108884,2
49.597248792648315,344,1976,267,109026,2
49.63719892501831,321,1840,46,109381,2
49.67807626724243,177,1809,-47,109466,2
49.71723771095276,289,1910,117,108245,2
49.75725507736206,350,1855,490,107943,2
49.797216176986694,422,1771,458,108133,2
49.83720541000366,349,1777,305,108555,2
49.87744474411011,190,1905,379,109071,2
49.91623330116272,43,2055,448,109564,2
49.95621991157532,-174,2207,533,109831,2
49.99642634391785,-304,2179,551,109694,2
50.0362114906311,-291,2116,449,109424,2
50.07623100280762,-157,2048,466,108637,2
50.11624598503113,-97,2054,437,107852,2
50.15619421005249,-61,2072,501,107846,2
50.19628047943115,113,2041,476,108019,2
50.23623442649841,173,2070,473,108350,2
50.276275873184204,120,2048,419,108822,2
50.316312074661255,30,1989,258,109237,2
50.35622835159302,17,1989,199,109351,2
50.39541578292847,92,2019,148,109238,2
50.43520641326904,201,2010,53,109094,2
50.47520875930786,168,1968,45,108508,2
50.515249729156494,235,1913,-29,107683,2
50.55522441864014,336,1873,-153,107569,2
50.595442056655884,247,1928,-261,107708,2
50.63521647453308,124,2001,-396,108007,2
50.6753876209259,-36,2074,-373,108368,2
50.71521306037903,-98,2102,-341,108648,2
50.75522756576538,-179,2107,-353,108751,2
50.79542803764343,-108,2153,-376,108782,2
50.8352210521698,-70,2162,-398,108794,2
50.874263048172,-148,2239,-303,108232,2
50.914318799972534,-276,2324,-156,107465,2
50.9542715549469,-159,2243,-54,107397,2
50.99468493461609,21,2053,-127,107577,2
51.03423738479614,128,1902,-199,107836,2
51.07421922683716,233,1858,-193,108125,2
51.11422634124756,246,1881,-296,108267,2
51.15428400039673,163,1989,-292,108231,2
51.1946747303009,25,2105,-47,108203,2
51.234256982803345,-10,2137,176,108267,2
51.2742555141449,156,2049,243,108290,2
51.31489443778992,306,1959,309,107803,2
51.353235483169556,333,1917,428,107729,2
51.39327144622803,245,1888,573,107890,2
51.433361768722534,289,1881,514,108075,2
51.47323560714722,286,1937,397,108287,2
51.513349294662476,199,1950,352,108398,2
51.55326867103577,349,1937,273,108419,2
51.593337059020996,273,2001,304,108399,2
51.633272886276245,133,2035,329,108407,2
51.673243284225464,136,2123,231,108438,2
51.71321988105774,17,2184,306,107996,2
51.75322699546814,110,2113,445,107678,2
51.79343581199646,220,1999,454,107744,2
51.83226418495178,227,1934,364,107933,2
51.87226343154907,162,1936,265,108191,2
51.912200927734375,14,1993,402,108461,2
51.952266216278076,93,2048,498,108529,2
51.992271423339844,112,2039,493,108468,2
52.03223776817322,110,2020,457,108444,2
52.07223200798035,120,2033,536,108493,2
52.112226247787476,260,1947,598,108340,2
52.152225494384766,468,1797,497,107853,2
52.192270040512085,528,1753,310,107696,2
52.23222804069519,403,1852,278,107838,2
52.27224779129028,264,1975,324,108066,2
52.312105894088745,239,2048,405,108317,2
52.35190033912659,331,2003,407,108468,2
52.3912250995636,339,1959,362,108481,2
52.43124485015869,276,1968,281,108497,2
52.471272706985474,176,2020,332,108518,2
52.51136064529419,205,1972,322,108546,2
52.55121326446533,265,1879,287,108091,2
52.59127426147461,337,1822,241,107697,2
52.631253242492676,507,1908,151,107704,2
52.6712806224823,231,2073,154,107812,2
52.71141266822815,19,2188,176,108043,2
52.75132608413696,69,2153,216,108239,2
52.79026937484741,229,2067,32,108281,2
52.8301956653595,228,1978,-120,108266,2
52.87024450302124,253,1993,-130,108284,2
52.910311460494995,194,2046,-164,108333,2
52.95027685165405,59,2141,-217,108215,2
52.99047374725342,16,2206,-255,107588,2
53.030245304107666,-21,2183,-99,107449,2
53.070273637771606,88,2094,-13,107564,2
53.11032462120056,198,2031,-87,107771,2
53.15025877952576,125,2001,-144,107993,2
53.19027853012085,67,2053,-237,108166,2
53.23026156425476,-93,2090,-203,108162,2
53.2692711353302,-80,2149,-119,108112,2
53.309210777282715,45,2111,-17,108130,2
53.34920954704285,150,2008,7,108218,2
53.38924193382263,280,1983,-53,108104,2
53.42927527427673,272,1990,-64,107636,2
53.46924829483032,245,2060,30,107597,2
53.50925922393799,80,2096,247,107790,2
53.549274921417236,149,2050,348,107984,2
53.589285373687744,326,1934,338,108215,2
53.62930607795715,388,1918,318,108315,2
53.669283866882324,363,1959,257,108352,2
53.708232164382935,261,2009,196,108333,2
53.748239040374756,137,2069,265,108331,2
53.78825378417969,116,2021,348,108378,2
53.82914590835571,277,1999,339,108229,2
53.86826467514038,332,1970,343,107782,2
53.90826773643494,286,1994,434,107714,2
53.948256492614746,295,1977,444,107825,2
53.988261699676514,346,1925,418,107979,2
54.02844953536987,383,2081,288,108168,2
54.06832718849182,147,2145,406,108269,2
54.10827016830444,64,2044,571,108247,2
54.14826798439026,242,1838,422,108217,2
54.187278270721436,349,1691,299,108221,2
54.22862696647644,505,1672,235,108272,2
54.267308473587036,545,1812,242,108096,2
54.30725622177124,297,2021,514,107651,2
54.347257137298584,213,2083,552,107539,2
54.38723301887512,188,1988,458,107608,2
54.427488803863525,329,1881,385,107792,2
54.46730351448059,370,1904,401,108033,2
54.50729322433472,324,1904,530,108194,2
54.5472207069397,352,1962,457,108249,2
54.58737230300903,276,1977,481,108243,2
54.62757205963135,221,1992,444,108275,2
54.66631531715393,179,2003,428,108370,2
54.70629143714905,153,2012,461,108339,2
54.74633193016052,179,1971,480,107701,2
54.78627061843872,276,1919,405,107475,2
54.826313972473145,216,1894,257,107552,2
54.86625576019287,146,1963,43,107717,2
54.906320095062256,-50,2055,-45,108012,2
54.9464430809021,-177,2144,-34,108195,2
54.986234188079834,-84,2201,3,108228,2
55.026246309280396,-53,2200,76,108180,2
55.066309452056885,-28,2130,66,108186,2
55.105276107788086,10,2030,40,108243,2
55.14614200592041,57,2004,31,108079,2
55.185295820236206,74,2007,36,107381,2
55.22527623176575,-21,2012,69,107267,2
55.265347480773926,-97,2001,41,107397,2
55.30527591705322,-80,2000,-33,107669,2
55.34801697731018,-43,2050,19,107997,2
55.38583278656006,-75,2147,35,108149,2
55.42529249191284,-192,2185,123,108154,2
55.46528100967407,-182,2118,202,108068,2
55.50526428222656,58,2008,170,108114,2
55.54526472091675,117,1958,42,108199,2
55.584296464920044,55,1961,-71,108038,2
55.624248027801514,-78,2006,-86,107363,2
55.66428732872009,-147,2064,-24,107287,2
55.70459294319153,-133,2067,63,107463,2
55.74439859390259,-4,2072,-38,107741,2
55.7842903137207,-35,2072,-14,108077,2
55.824278831481934,-28,2091,68,108298,2
55.864267349243164,0,2080,37,108374,2
55.90429472923279,-59,2066,-19,108403,2
55.944425106048584,-94,2009,-10,108408,2
55.98432207107544,-52,2001,-17,108498,2
56.023292779922485,-32,1976,-22,108386,2
56.06375980377197,-15,1991,-7,107557,2
56.103270292282104,-98,2010,31,107375,2
56.14343309402466,-124,2021,35,107555,2
56.186262369155884,-110,2032,29,107815,2
56.2232723236084,-143,2045,38,108140,2
56.263349294662476,-109,2006,78,108364,2
56.30325174331665,-19,1948,73,108403,2
56.34325170516968,-13,1986,17,108403,2
56.38327765464783,-80,2068,5,108424,2
56.42330884933472,-224,2154,-12,108487,2
56.46336793899536,-389,2174,41,108252,2
56.5023238658905,-304,2102,49,107503,2
56.5423321723938,-31,1985,-55,107386,2
56.58231258392334,-4,1973,-225,107524,2
56.62232303619385,-105,2032,-322,107828,2
56.66295909881592,-287,2081,-226,108178,2
56.702309370040894,-355,2122,-112,108391,2
56.74226903915405,-298,2101,6,108436,2
56.78227734565735,-88,2037,57,108389,2
56.822267055511475,-32,1975,29,108363,2
56.862332820892334,-33,1951,-106,108378,2
56.90232801437378,-189,1999,-125,107833,2
56.94229984283447,-288,2012,-84,107306,2
56.981308937072754,-166,1947,-125,107316,2
57.02130961418152,-38,1907,-179,107495,2
57.0615234375,-86,1931,-223,107826,2
57.10142493247986,-197,2036,-187,108185,2
57.141340494155884,-285,2102,-132,108427,2
57.18128228187561,-274,2137,-98,108436,2
57.22128939628601,-282,2139,-105,108398,2
57.26195240020752,-246,2061,-100,108360,2
57.301310777664185,-133,1977,-115,108406,2
57.34131193161011,-132,1976,-171,107909,2
57.38133931159973,-186,2006,-209,107368,2
57.42036485671997,-266,2068,-168,107412,2
57.46037435531616,-396,2101,-142,107626,2
57.50034308433533,-319,2100,-134,107960,2
57.54031777381897,-226,2052,-51,108329,2
57.580304861068726,-153,1995,-9,108511,2
57.62029004096985,-119,2003,23,108530,2
57.66037058830261,-120,2013,-23,108462,2
57.70043420791626,-194,2030,-79,108460,2
57.740286350250244,-172,2070,-95,108517,2
57.780462980270386,-153,2072,-62,108109,2
57.820310831069946,-153,2050,-73,107494,2
57.86036562919617,-130,2045,-84,107482,2
57.89935922622681,-178,2048,-62,107695,2
57.93931317329407,-182,2021,-49,107984,2
57.979384422302246,-112,1951,-61,108296,2
58.019274950027466,-13,1919,-71,108481,2
58.05930495262146,-5,1911,-86,108497,2
58.099316358566284,-83,1959,-76,108485,2
58.139357805252075,-151,2022,-27,108492,2
58.17954444885254,-193,2070,-22,108529,2
58.21934533119202,-200,2071,-33,107930,2
58.25943899154663,-153,2049,-18,107414,2
58.2993438243866,-133,2048,-92,107466,2
58.33935594558716,-222,2055,-144,107664,2
58.378496170043945,-350,2089,-140,107980,2
58.41833758354187,-387,2073,-40,108295,2
58.45839214324951,-244,2020,-31,108476,2
58.4983127117157,-197,1962,-111,108544,2
58.53834772109985,-194,1949,-151,108585,2
58.578325510025024,-205,1984,-166,108652,2
58.61835718154907,-249,2033,-216,108753,2
58.65830588340759,-387,2089,-193,108150,2
58.698322057724,-377,2105,-118,107485,2
58.73837900161743,-284,2080,-74,107488,2
58.7783317565918,-230,2031,-78,107746,2
58.81739521026611,-211,1990,-82,108081,2
58.85732412338257,-250,1974,-107,108445,2
58.89727163314819,-291,1967,-65,108626,2
58.937307357788086,-264,1945,-76,108647,2
58.97747182846069,-254,1920,-68,108591,2
59.017340421676636,-247,1936,-97,108578,2
59.05731678009033,-225,1990,-197,108601,2
59.097315073013306,-372,2050,-204,107940,2
59.13734221458435,-447,2125,-175,107468,2
59.17741799354553,-480,2153,-167,107509,2
59.21734571456909,-442,2130,-174,107754,2
59.2573823928833,-395,2066,-149,108093,2
59.29634666442871,-342,2002,-127,108430,2
59.33632850646973,-308,1964,-151,108617,2
59.37666320800781,-305,1939,-172,108642,2
59.416319847106934,-309,1927,-193,108642,2
59.45635676383972,-327,1933,-169,108675,2
59.496397495269775,-308,1969,-203,108640,2
59.53642964363098,-334,1992,-176,107796,2
59.576353788375854,-322,2030,-137,107421,2
59.61635637283325,-356,2039,-139,107506,2
59.65638208389282,-347,2040,-179,107719,2
59.6963632106781,-342,2057,-149,108058,2
59.73633527755737,-341,2039,-156,108406,2
59.77533006668091,-340,2033,-166,108575,2
59.815322160720825,-322,2004,-161,108597,2
59.855371713638306,-309,1986,-126,108607,2
59.89563512802124,-302,1962,-153,108642,2
59.93536686897278,-245,1967,-203,108644,2
59.97541093826294,-288,1971,-226,107791,2
60.01533484458923,-345,1996,-179,107417,2
60.05532431602478,-347,2027,-167,107455,2
60.09615445137024,-346,2017,-159,107669,2
60.13531994819641,-311,1998,-172,107973,2
60.175315856933594,-305,2009,-164,108283,2
60.21429133415222,-307,2009,-189,108423,2
60.25443696975708,-299,2016,-207,108419,2
60.294808864593506,-325,2009,-195,108409,2
60.33432126045227,-316,2012,-189,108459,2
60.374367475509644,-321,2034,-193,108453,2
60.41430401802063,-342,2064,-161,107741,2
60.45434355735779,-404,2147,-170,107378,2
60.49443864822388,-450,2203,-150,107431,2
60.534343242645264,-317,2105,-190,107656,2
60.57431936264038,16,1971,-178,107905,2
60.614259243011475,4,1900,-193,108196,2
60.65434956550598,-157,1852,-159,108324,2
60.693565368652344,-144,1885,-230,108363,2
60.73337721824646,-258,1947,-137,108369,2
60.77332782745361,-148,1948,-56,108423,2
60.813315629959106,-127,1974,-117,108535,2
60.85338044166565,-260,2014,-176,108055,2
60.893635511398315,-328,2090,-156,107467,2
60.93334698677063,-386,2086,-179,107439,2
60.97331666946411,-316,2065,-174,107575,2
61.013405084609985,-254,2061,-131,107856,2
61.05335235595703,-263,2045,-132,108094,2
61.09335494041443,-270,2036,-122,108272,2
61.13333606719971,-271,2004,-169,108288,2
61.172325134277344,-289,1977,-218,108276,2
61.21240782737732,-274,1966,-246,108286,2
61.25235319137573,-270,1968,-249,108374,2
61.29237675666809,-304,2021,-184,108014,2
61.33231258392334,-297,2031,-150,107382,2
61.372358560562134,-294,2024,-147,107321,2
61.412517786026,-299,2025,-190,107470,2
61.45237946510315,-336,2017,-195,107694,2
61.4923357963562,-341,2002,-217,108010,2
61.53236365318298,-287,1996,-201,108174,2
61.572341442108154,-264,2003,-180,108196,2
61.61238431930542,-266,2010,-194,108164,2
61.65135717391968,-349,2008,-193,108217,2
61.69129967689514,-360,1995,-226,108293,2
61.731362104415894,-317,2006,-272,108234,2
61.771366596221924,-355,2026,-209,107481,2
61.81198334693909,-353,2057,-140,107282,2
61.851407527923584,-352,2073,-111,107388,2
61.89135718345642,-303,2037,-147,107599,2
61.931376457214355,-268,1983,-152,107848,2
61.97136425971985,-227,1930,-181,108074,2
62.01162505149841,-207,1897,-242,108111,2
62.051331996917725,-232,1945,-217,108083,2
62.09032988548279,-322,2038,-126,108086,2
62.13035321235657,-381,2077,-104,108138,2
62.17038536071777,-283,2052,-182,108219,2
62.21127414703369,-318,2033,-209,107699,2
62.250335931777954,-328,2015,-201,107211,2
62.29048252105713,-321,2017,-200,107256,2
62.33035898208618,-327,2017,-213,107445,2
62.370380878448486,-315,2024,-188,107726,2
62.41049122810364,-312,2005,-181,107990,2
62.45043110847473,-297,2003,-174,108150,2
62.490339517593384,-263,2000,-138,108128,2
62.53066039085388,-267,1992,-141,108130,2
62.56939077377319,-264,1994,-154,108172,2
62.60937547683716,-289,1995,-181,108268,2
62.649354219436646,-340,2029,-133,108127,2
62.68958067893982,-353,2032,-107,107343,2
62.729305028915405,-296,2020,-121,107167,2
62.76941800117493,-320,1999,-122,107283,2
62.80949521064758,-297,1998,-132,107486,2
62.84938406944275,-313,1994,-167,107735,2
62.889404296875,-334,1994,-194,107879,2
62.92950654029846,-322,2037,-143,107908,2
62.969595193862915,-304,2042,-120,107878,2
63.00935626029968,-335,2032,-112,107927,2
63.0493426322937,-305,2005,-133,108005,2
63.08843231201172,-285,1988,-203,108100,2
63.1284761428833,-349,2004,-200,107537,2
63.16840720176697,-346,2014,-126,107074,2
63.20834422111511,-275,2007,-110,107093,2
63.24839806556702,-277,2002,-124,107288,2
63.28836464881897,-315,2002,-143,107524,2
63.328892946243286,-334,2003,-175,107767,2
63.36839294433594,-334,2003,-173,107841,2
63.40837287902832,-300,2009,-167,107802,2
63.44837713241577,-315,2031,-147,107749,2
63.488359212875366,-335,2042,-107,107808,2
63.52853441238403,-330,2014,-123,107884,2
63.56735420227051,-292,2015,-157,107833,2
63.60739850997925,-328,2010,-167,107164,2
63.64735436439514,-327,2020,-191,106970,2
63.687382221221924,-339,2003,-165,107048,2
63.7275664806366,-291,1986,-169,107240,2
63.76749277114868,-283,1993,-182,107469,2
63.80741214752197,-328,1992,-194,107626,2
63.84780693054199,-309,1994,-177,107582,2
63.887391328811646,-306,2024,-152,107523,2
63.927443981170654,-346,2016,-128,107512,2
63.96738052368164,-305,2009,-149,107603,2
64.00637817382812,-294,2006,-152,107713,2
64.04632902145386,-339,2015,-179,107482,2
64.08640456199646,-363,2016,-156,106921,2
64.12637615203857,-338,2012,-154,106866,2
64.16640377044678,-278,1987,-150,106992,2
64.20635843276978,-278,1983,-170,107217,2
64.24638152122498,-337,2015,-160,107465,2
64.28638887405396,-334,2004,-150,107565,2
64.3264217376709,-286,1986,-148,107503,2
64.36640477180481,-302,2008,-141,107449,2
64.40640425682068,-386,2034,-128,107440,2
64.44640159606934,-370,2025,-154,107529,2
64.48540091514587,-329,2016,-185,107634,2
64.52535796165466,-368,2009,-141,107189,2
64.56544494628906,-306,2029,-142,106788,2
64.605388879776,-371,2022,-122,106776,2
64.64570879936218,-358,2002,-155,106937,2
64.68537020683289,-325,1993,-180,107170,2
64.72538757324219,-304,1980,-200,107387,2
64.76539039611816,-336,1984,-156,107416,2
64.80539774894714,-275,1990,-140,107328,2
64.84580779075623,-320,2007,-137,107311,2
64.88537311553955,-356,2060,-108,107355,2
64.92536735534668,-303,2119,-66,107479,2
64.96435356140137,-282,2131,-55,107507,2
65.00436544418335,-320,2069,-84,106946,2
65.04463529586792,-289,2010,-48,106658,2
65.08514022827148,-187,1940,-63,106705,2
65.12439966201782,-273,1909,-56,106868,2
65.16433954238892,-286,1886,-109,107114,2
65.20441722869873,-277,1890,-100,107279,2
65.24476885795593,-192,1905,-89,107288,2
65.2843701839447,-157,1967,-19,107224,2
65.32441973686218,-241,2086,44,107208,2
65.36433053016663,-354,2147,61,107248,2
65.4043517112732,-397,2140,16,107350,2
65.44340801239014,-408,2095,-49,107215,2
65.48341417312622,-370,2033,-52,106684,2
65.53940224647522,-297,1995,-24,106572,2
65.56339025497437,-295,1944,-30,106673,2
65.60362505912781,-278,1931,-66,106889,2
65.6433756351471,-360,1959,-55,107114,2
65.68337059020996,-367,1980,-71,107244,2
65.7234046459198,-444,1987,-90,107151,2
65.76335859298706,-357,2009,-53,107062,2
65.8033800125122,-337,2017,-28,107040,2
65.84341788291931,-323,2017,-55,107107,2
65.88339328765869,-329,2035,-62,107182,2
65.92242789268494,-424,2033,-132,106831,2
65.9625494480133,-489,2019,-157,106437,2
66.00239443778992,-460,1987,-189,106441,2
66.04237985610962,-414,1959,-182,106595,2
66.08238196372986,-375,1954,-203,106868,2
66.1224262714386,-418,1988,-210,107113,2
66.1623911857605,-467,2011,-223,107188,2
66.20245051383972,-473,2020,-211,107116,2
66.24238395690918,-483,2039,-198,107057,2
66.2824227809906,-474,2022,-157,107080,2
66.32248067855835,-457,2021,-138,107170,2
66.36261129379272,-419,2012,-168,107206,2
66.40136981010437,-476,2000,-149,106639,2
66.4414598941803,-444,1991,-91,106382,2
66.48141932487488,-369,1955,-110,106447,2
66.52144503593445,-362,1941,-133,106646,2
66.56173515319824,-363,1933,-157,106900,2
66.60142302513123,-377,1936,-147,106989,2
66.64150261878967,-399,1967,-186,106931,2
66.68140721321106,-443,1977,-208,106810,2
66.72144436836243,-486,2006,-189,106781,2
66.76222562789917,-447,2023,-172,106825,2
66.80138564109802,-434,2027,-143,106890,2
66.84146976470947,-464,2029,-128,106499,2
66.88034200668335,-456,2007,-117,106173,2
66.92043805122375,-434,1989,-134,106168,2
66.96056699752808,-424,1958,-151,106335,2
67.00040435791016,-420,1962,-164,106556,2
67.04043769836426,-469,1985,-122,106720,2
67.08038091659546,-457,1987,-121,106690,2
67.12048149108887,-400,1981,-143,106607,2
67.16148281097412,-428,1979,-132,106550,2
67.20040130615234,-446,1977,-147,106583,2
67.2404317855835,-461,1996,-167,106608,2
67.28041577339172,-441,2007,-99,106237,2
67.32044410705566,-392,2005,-59,105910,2
67.35942697525024,-404,1994,-86,105886,2
67.39938592910767,-443,1982,-140,105994,2
67.43939924240112,-431,1974,-157,106190,2
67.47939777374268,-439,1949,-159,106328,2
67.51940321922302,-431,1944,-165,106336,2
67.55939269065857,-433,1989,-136,106269,2
67.59940958023071,-429,2031,-62,106245,2
67.63942980766296,-427,2033,-60,106236,2
67.67941427230835,-460,2017,-128,106278,2
67.7195553779602,-481,1992,-151,106001,2
67.7594542503357,-455,1988,-156,105626,2
67.79945278167725,-402,1967,-139,105551,2
67.83847188949585,-399,1958,-133,105637,2
67.87846803665161,-396,1961,-154,105801,2
67.91842436790466,-447,1989,-143,105942,2
67.95841264724731,-443,1996,-170,105950,2
67.9983594417572,-432,2012,-148,105914,2
68.0384521484375,-431,2028,-84,105877,2
68.0784740447998,-448,2009,-90,105873,2
68.11846852302551,-480,1966,-144,105926,2
68.15842390060425,-404,1935,-176,105817,2
68.19844889640808,-418,1953,-155,105399,2
68.23847007751465,-449,1998,-132,105245,2
68.27738904953003,-508,2004,-87,105302,2
68.31744194030762,-430,1987,-73,105472,2
68.35745191574097,-377,1973,-92,105634,2
68.39738130569458,-421,1994,-134,105672,2
68.43741822242737,-511,2006,-136,105628,2
68.47783279418945,-406,1992,-138,105597,2
68.51747107505798,-402,1971,-138,105589,2
68.55738401412964,-420,1974,-150,105587,2
68.59746170043945,-421,1997,-125,105629,2
68.63741755485535,-488,2004,-108,105286,2
68.67754364013672,-486,2002,-94,105013,2
68.71640491485596,-435,2008,-102,105007,2
68.75644493103027,-420,1980,-95,105133,2
68.79654216766357,-427,1973,-91,105312,2
68.83640909194946,-432,1962,-74,105412,2
68.87641954421997,-406,1953,-131,105383,2
68.91645383834839,-429,1970,-146,105361,2
68.95641541481018,-467,2001,-158,105355,2
68.99650454521179,-520,2008,-160,105384,2
69.036461353302,-466,1997,-104,105417,2
69.07642316818237,-430,1996,-87,105401,2
69.1164481639862,-455,2008,-49,105006,2
69.156423330307,-466,2000,-76,104759,2
69.19547820091248,-463,1981,-105,104767,2
69.23549032211304,-455,1969,-100,104910,2
69.27545213699341,-451,1964,-118,105095,2
69.31542825698853,-454,1962,-129,105177,2
69.35543823242188,-452,1986,-125,105159,2
69.39542388916016,-467,1993,-109,105114,2
69.43554043769836,-468,2008,-104,105110,2
69.47540330886841,-474,2007,-98,105133,2
69.5154275894165,-441,1990,-108,105202,2
69.55547189712524,-400,1971,-144,105241,2
69.59541749954224,-475,1982,-153,104917,2
69.63443446159363,-493,1985,-131,104636,2
69.67444777488708,-443,1969,-114,104636,2
69.71442770957947,-431,1966,-109,104773,2
69.75441145896912,-438,1969,-125,105006,2
69.79440593719482,-471,1987,-122,105146,2
69.83446717262268,-445,2003,-113,105170,2
69.87445831298828,-448,2009,-93,105114,2
69.91444611549377,-447,2015,-105,105112,2
69.95453262329102,-443,1984,-120,105138,2
69.99447989463806,-394,1961,-109,105190,2
70.03447604179382,-393,1950,-164,105303,2
70.07449984550476,-467,1991,-140,105117,2
70.11339235305786,-497,2032,-105,104686,2
70.1534628868103,-474,2026,-54,104597,2
70.19346308708191,-424,1997,-61,104702,2
70.23349356651306,-390,1973,-73,104895,2
70.27350807189941,-405,1967,-100,105116,2
70.31342959403992,-417,1976,-112,105172,2
70.35357427597046,-450,1978,-137,105133,2
70.39349842071533,-453,1990,-123,105102,2
70.43344616889954,-449,1999,-78,105142,2
70.47344875335693,-415,1986,-57,105190,2
70.51355791091919,-410,1985,-62,105304,2
70.5524411201477,-422,1991,-63,105207,2
70.5925076007843,-434,1976,-112,104710,2
70.63246941566467,-432,1987,-107,104560,2
70.67246794700623,-460,1999,-72,104673,2
70.71258020401001,-429,2011,-35,104850,2
70.75246691703796,-443,1994,-41,105059,2
70.79245638847351,-472,1971,-58,105138,2
70.8324511051178,-389,1971,-116,105078,2
70.87245035171509,-377,1946,-145,105014,2
70.91310691833496,-406,1943,-172,105039,2
70.9524667263031,-440,1971,-178,105092,2
70.99249505996704,-475,1991,-149,105205,2
71.03149056434631,-477,2034,-73,104997,2
71.07149934768677,-439,2041,-58,104545,2
71.111891746521,-460,2025,-86,104450,2
71.15148591995239,-471,1999,-143,104560,2
71.19142556190491,-499,1944,-152,104731,2
71.23141813278198,-485,1975,-88,104905,2
71.27152180671692,-492,1992,-93,104971,2
71.31187725067139,-490,1991,-97,104912,2
71.35150599479675,-473,2008,-94,104899,2
71.39145493507385,-498,2008,-60,104931,2
71.43142628669739,-454,1988,-93,105006,2
71.47158598899841,-450,1953,-140,105119,2
71.51054978370667,-491,1944,-113,104867,2
71.55048942565918,-463,1955,-115,104460,2
71.5904893875122,-454,1967,-99,104393,2
71.63043665885925,-477,1985,-80,104492,2
71.67047643661499,-496,1994,-62,104697,2
71.7105221748352,-469,2015,-61,104863,2
71.75042963027954,-469,2020,-67,104940,2
71.7904942035675,-471,2013,-62,104914,2
71.83043909072876,-501,2000,-64,104899,2
71.87049579620361,-508,1996,-47,104941,2
71.91045546531677,-460,1971,-43,105048,2
71.94949650764465,-429,1993,-21,105143,2
71.98945212364197,-484,2004,35,104852,2
72.02955746650696,-440,1945,14,104435,2
72.06946182250977,-320,1874,-94,104352,2
72.10958957672119,-386,1853,-145,104454,2
72.14948153495789,-461,1906,-213,104642,2
72.1894884109497,-584,1986,-232,104825,2
72.22977995872498,-602,2075,-205,104877,2
72.26948761940002,-572,2123,-151,104852,2
72.30958366394043,-454,2056,-124,104808,2
72.34950423240662,-445,1971,-97,104840,2
72.38946890830994,-396,1935,-151,104897,2
72.4289243221283,-440,1975,-298,104954,2
72.46848630905151,-543,2046,-346,104541,2
72.50854706764221,-725,2154,-274,104297,2
72.54845643043518,-951,2081,-124,104314,2
72.58851528167725,-495,1849,-185,104445,2
72.62864375114441,-210,1760,-98,104647,2
72.66850566864014,-175,1803,-64,104784,2
72.70847845077515,-270,1873,-264,104831,2
72.74850010871887,-454,1951,-409,104849,2
72.78850793838501,-630,2017,-416,104874,2
72.82850122451782,-641,2028,-400,104955,2
72.86757349967957,-544,1987,-354,105075,2
72.90753436088562,-366,1968,-334,105134,2
72.94756317138672,-383,1956,-285,104635,2
72.98744106292725,-394,1958,-312,104355,2
73.02749919891357,-438,1964,-367,104408,2
73.06754064559937,-470,1958,-407,104598,2
73.1074447631836,-496,1971,-384,104844,2
73.14764714241028,-472,1958,-322,105027,2
73.18753361701965,-329,1951,-310,105044,2
73.22757601737976,-349,1962,-291,105042,2
73.26746797561646,-489,2007,-253,105064,2
73.30745553970337,-549,2005,-251,105157,2
73.34663224220276,-421,1949,-335,105264,2
73.38645339012146,-396,1916,-325,105243,2
73.42649579048157,-395,1931,-281,104682,2
73.466477394104,-412,1952,-285,104487,2
73.5064959526062,-364,1976,-286,104582,2
73.54644751548767,-468,2002,-267,104800,2
73.58656668663025,-484,2011,-335,105100,2
73.62657475471497,-557,2011,-368,105293,2
73.66651773452759,-544,1973,-298,105266,2
73.70650005340576,-334,1935,-270,105200,2
73.74646520614624,-271,1954,-263,105235,2
73.78650879859924,-427,1986,-255,105351,2
73.82552862167358,-565,2005,-315,105506,2
73.86548686027527,-639,2003,-301,105282,2
73.90552949905396,-472,1931,-326,104673,2
73.94582748413086,-403,1892,-311,104562,2
73.98550868034363,-378,1924,-286,104714,2
74.02572536468506,-492,1968,-261,104923,2
74.06548118591309,-521,1971,-222,105159,2
74.10547089576721,-484,1972,-258,105289,2
74.14585494995117,-541,1980,-273,105246,2
74.1854932308197,-602,1978,-249,105224,2
74.22552394866943,-524,1917,-224,105244,2
74.26550388336182,-375,1896,-218,105333,2
74.30451440811157,-420,1933,-275,105368,2
74.34498357772827,-520,1944,-363,104859,2
74.38456726074219,-576,1976,-295,104559,2
74.42452025413513,-492,1989,-223,104578,2
74.46451091766357,-516,1984,-308,104755,2
74.50455522537231,-487,1985,-312,104985,2
74.54479479789734,-508,1960,-363,105190,2
74.58563017845154,-505,1917,-380,105223,2
74.6245973110199,-376,1886,-384,105154,2
74.6645655632019,-469,1937,-396,105158,2
74.7044951915741,-554,1951,-374,105255,2
74.74533176422119,-474,1981,-382,105386,2
74.78349804878235,-585,1990,-359,105162,2
74.8234703540802,-606,1982,-284,104663,2
74.86350965499878,-504,1977,-230,104564,2
74.90352511405945,-518,2016,-236,104666,2
74.9437267780304,-633,2038,-186,104882,2
74.98376607894897,-652,1964,-100,105077,2
75.0234956741333,-463,1872,-97,105153,2
75.06353545188904,-305,1806,-153,105120,2
75.10347938537598,-240,1790,-288,105088,2
75.14352250099182,-372,1809,-425,105096,2
75.18405532836914,-588,1886,-487,105195,2
75.22350263595581,-730,1999,-470,105258,2
75.26253390312195,-778,2058,-396,104842,2
75.30248880386353,-698,2092,-258,104577,2
75.34250044822693,-631,2072,-210,104588,2
75.3825170993805,-652,2033,-227,104730,2
75.42254328727722,-642,1979,-248,104960,2
75.46274280548096,-609,1932,-220,105111,2
75.50251507759094,-519,1865,-194,105115,2
75.5424964427948,-454,1822,-181,105053,2
75.58248734474182,-467,1859,-225,105043,2
75.6225745677948,-531,1887,-246,105094,2
75.66296100616455,-610,1921,-246,105203,2
75.70148587226868,-549,1944,-308,105260,2
75.74149894714355,-549,1938,-340,104814,2
75.78148436546326,-547,1952,-353,104592,2
75.82152223587036,-579,1962,-339,104648,2
75.86173582077026,-592,1990,-322,104826,2
75.90162396430969,-613,2006,-281,105090,2
75.9415533542633,-634,1983,-289,105261,2
75.98152470588684,-585,1963,-288,105286,2
76.02155423164368,-544,1931,-299,105216,2
76.06194067001343,-544,1904,-330,105201,2
76.1015682220459,-537,1907,-318,105258,2
76.14150857925415,-573,1916,-293,105360,2
76.18051147460938,-581,1938,-283,105380,2
76.22048854827881,-622,1951,-255,104889,2
76.26050901412964,-595,1965,-228,104673,2
76.30047869682312,-550,1953,-206,104743,2
76.3406069278717,-538,1928,-233,104905,2
76.38062644004822,-575,1937,-251,105127,2
76.42049670219421,-559,1926,-264,105301,2
76.46053576469421,-549,1921,-258,105299,2
76.50054502487183,-537,1913,-282,105248,2
76.54049110412598,-571,1926,-278,105228,2
76.58053708076477,-582,1945,-262,105287,2
76.6205222606659,-557,1951,-276,105396,2
76.65948414802551,-569,1960,-260,105341,2
76.69953107833862,-593,1965,-268,104859,2
76.73948454856873,-565,1954,-287,104703,2
76.77950048446655,-594,1941,-278,104788,2
76.81951212882996,-553,1925,-298,104944,2
76.85949420928955,-580,1924,-362,105159,2
76.89953565597534,-682,1938,-312,105249,2
76.93949961662292,-567,1931,-258,105213,2
76.97977924346924,-500,1926,-220,105212,2
77.01949262619019,-561,1940,-265,105242,2
77.05949807167053,-588,1964,-270,105319,2
77.09949374198914,-624,1942,-305,105420,2
77.13853216171265,-641,1922,-345,105152,2
77.17932224273682,-554,1905,-293,104700,2
77.21848917007446,-509,1925,-244,104621,2
77.2585096359253,-575,1934,-271,104721,2
77.29853558540344,-627,1948,-315,104923,2
77.33852410316467,-658,1951,-292,105121,2
77.37886190414429,-608,1942,-256,105199,2
77.41860103607178,-577,1920,-282,105134,2
77.45850920677185,-522,1902,-294,105131,2
77.49851417541504,-548,1910,-270,105144,2
77.5385193824768,-591,1919,-283,105231,2
77.57901239395142,-591,1938,-286,105340,2
77.61753487586975,-602,1965,-261,105031,2
77.65751791000366,-615,1958,-262,104632,2
77.69750213623047,-608,1957,-264,104594,2
77.73764657974243,-616,1934,-260,104723,2
77.77769732475281,-572,1929,-278,104923,2
77.81752038002014,-584,1914,-288,105106,2
77.85755586624146,-566,1914,-274,105149,2
77.89750218391418,-571,1931,-279,105075,2
77.93752765655518,-606,1949,-283,105068,2
77.977947473526,-661,1981,-267,105089,2
78.01789569854736,-638,1958,-253,105199,2
78.05657577514648,-561,1928,-272,105252,2
78.0965805053711,-550,1917,-269,104902,2
78.13653349876404,-556,1917,-263,104578,2
78.17681193351746,-569,1923,-272,104578,2
78.21652436256409,-610,1925,-294,104702,2
78.25679850578308,-596,1933,-313,104916,2
78.29661250114441,-606,1945,-272,105076,2
78.3365330696106,-612,1946,-264,105073,2
78.37655568122864,-577,1926,-275,104991,2
78.4165346622467,-587,1932,-281,105000,2
78.45655083656311,-602,1915,-281,105025,2
78.49651384353638,-584,1924,-252,105124,2
78.53551077842712,-568,1951,-227,105206,2
78.57556319236755,-635,1969,-208,104876,2
78.61554551124573,-621,1944,-242,104519,2
78.65556335449219,-604,1926,-231,104488,2
78.69555044174194,-613,1907,-260,104584,2
78.73559951782227,-599,1923,-279,104746,2
78.77553820610046,-600,1921,-302,104862,2
78.81548929214478,-573,1921,-330,104835,2
78.8555850982666,-626,1939,-340,104805,2
78.89552116394043,-644,1956,-282,104817,2
78.9356119632721,-588,1951,-249,104853,2
78.9756281375885,-590,1936,-236,104943,2
79.01450395584106,-561,1921,-275,105015,2
79.05455780029297,-597,1917,-254,104678,2
79.09457993507385,-583,1928,-272,104330,2
79.13459324836731,-575,1948,-266,104294,2
79.17459511756897,-616,1932,-255,104413,2
79.21459913253784,-533,1918,-246,104574,2
79.254558801651,-605,1932,-270,104692,2
79.29458165168762,-606,1918,-293,104658,2
79.3345673084259,-564,1923,-287,104627,2
79.37454605102539,-611,1928,-296,104625,2
79.41456723213196,-661,1912,-299,104677,2
79.45453691482544,-593,1898,-300,104761,2
79.49353885650635,-546,1879,-299,104857,2
79.53353786468506,-568,1939,-205,104639,2
79.57354235649109,-637,1986,-144,104221,2
79.61357593536377,-674,2006,-145,104104,2
79.65358018875122,-665,1975,-157,104172,2
79.69530749320984,-550,1925,-216,104308,2
79.73352456092834,-595,1899,-278,104449,2
79.77353692054749,-623,1884,-304,104412,2
79.81352090835571,-626,1874,-303,104362,2
79.853506565094,-630,1894,-309,104348,2
79.89362573623657,-677,1875,-327,104405,2
79.93354392051697,-613,1869,-313,104485,2
79.97254776954651,-574,1877,-291,104573,2
80.01296162605286,-645,1912,-274,104574,2
80.05253195762634,-712,1943,-189,104167,2
80.09253239631653,-682,1984,-121,103920,2
80.13253617286682,-709,1975,-110,103931,2
80.17250919342041,-673,1957,-156,104036,2
80.212575674057,-671,1933,-203,104209,2
80.25257205963135,-711,1921,-280,104243,2
80.29254961013794,-754,1879,-322,104211,2
80.33256649971008,-696,1866,-332,104150,2
80.37253975868225,-678,1859,-293,104169,2
80.41252851486206,-689,1843,-305,104234,2
80.45161724090576,-702,1851,-311,104324,2
80.49157357215881,-719,1848,-303,104401,2
80.53155755996704,-708,1863,-317,104267,2
80.5715274810791,-726,1848,-319,103840,2
80.61183571815491,-692,1903,-259,103717,2
80.65155982971191,-783,1903,-260,103766,2
80.6915237903595,-857,1887,-291,103904,2
80.73156976699829,-838,1876,-266,104035,2
80.77159309387207,-751,1867,-242,104050,2
80.81189608573914,-754,1858,-239,104004,2
80.8515727519989,-764,1832,-287,104011,2
80.89160370826721,-813,1835,-252,104051,2
80.93054628372192,-770,1901,-82,104138,2
80.97068691253662,-765,2005,82,104232,2
81.01054811477661,-817,2011,171,104328,2
81.05059099197388,-820,1975,-19,104103,2
81.0905408859253,-839,1865,-246,103702,2
81.13064527511597,-820,1767,-454,103563,2
81.17055416107178,-834,1739,-523,103634,2
81.21058225631714,-829,1757,-543,103787,2
81.25056862831116,-804,1714,-550,103960,2
81.29057264328003,-824,1721,-509,104001,2
81.33057284355164,-813,1791,-319,103990,2
81.37054300308228,-760,1883,-117,104001,2
81.4095139503479,-748,1977,32,104054,2
81.44951367378235,-821,2014,61,104111,2
81.48957848548889,-911,1957,-122,104196,2
81.52990865707397,-948,1885,-291,104298,2
81.56954073905945,-903,1836,-324,104125,2
81.6095564365387,-853,1824,-267,103705,2
81.64963984489441,-791,1797,-233,103550,2
81.68954873085022,-715,1796,-179,103555,2
81.73033785820007,-708,1817,-133,103654,2
81.7695631980896,-766,1836,-142,103760,2
81.80960130691528,-854,1859,-172,103755,2
81.84957790374756,-831,1846,-240,103752,2
81.88856267929077,-846,1856,-300,103791,2
81.9289972782135,-942,1869,-345,103855,2
81.96859550476074,-880,1824,-313,103911,2
82.00855731964111,-834,1806,-244,103981,2
82.04858350753784,-751,1795,-197,104047,2
82.08860158920288,-796,1860,-55,103796,2
82.12961506843567,-800,1907,17,103416,2
82.16857886314392,-864,1898,-50,103281,2
82.20860886573792,-908,1844,-213,103312,2
82.2485876083374,-823,1790,-338,103452,2
82.2885479927063,-810,1802,-345,103554,2
82.32917428016663,-895,1842,-320,103612,2
82.36863994598389,-897,1842,-250,103596,2
82.40754532814026,-751,1852,-179,103616,2
82.44759488105774,-781,1860,-202,103655,2
82.48762702941895,-890,1879,-236,103764,2
82.52754712104797,-964,1892,-172,103844,2
82.56761717796326,-852,1863,-198,103871,2
82.60755324363708,-824,1786,-220,103498,2
82.6475944519043,-691,1761,-244,103156,2
82.68757843971252,-684,1752,-270,103070,2
82.72773098945618,-879,1792,-313,103130,2
82.76771402359009,-1004,1868,-300,103288,2
82.80762338638306,-976,1937,-145,103384,2
82.84752750396729,-879,1936,27,103413,2
82.88653063774109,-784,1910,-9,103393,2
82.92658185958862,-837,1854,-161,103423,2
82.96656250953674,-896,1813,-297,103487,2
83.00657272338867,-875,1780,-361,103565,2
83.04663014411926,-840,1776,-359,103664,2
83.08654594421387,-835,1751,-362,103715,2
83.12654566764832,-898,1765,-329,103349,2
83.16655254364014,-884,1831,-166,103062,2
83.20655179023743,-786,1924,61,103010,2
83.24687266349792,-797,1967,145,103064,2
83.28656148910522,-857,1906,-59,103184,2
83.32654666900635,-902,1843,-251,103333,2
83.36659908294678,-931,1812,-344,103399,2
83.40559887886047,-880,1801,-363,103407,2
83.44557738304138,-821,1801,-284,103441,2
83.48560905456543,-808,1827,-170,103512,2
83.52564597129822,-860,1832,-132,103616,2
83.56556153297424,-886,1857,-93,103725,2
83.60557270050049,-839,1911,-44,103821,2
83.64572525024414,-900,1921,-32,103525,2
83.68555784225464,-836,1874,2,103131,2
83.72556066513062,-771,1844,-16,102998,2
83.76554608345032,-754,1855,-86,103094,2
83.8055772781372,-764,1854,-137,103261,2
83.84620380401611,-773,1879,-167,103466,2
83.88557028770447,-818,1864,-173,103536,2
83.92459607124329,-777,1898,-298,103526,2
83.96454358100891,-927,1903,-327,103556,2
84.00455927848816,-908,1918,-344,103634,2
84.04464864730835,-844,1945,-216,103728,2
84.08461904525757,-802,1927,-192,103825,2
84.12462019920349,-791,1931,-218,103884,2
84.16459846496582,-859,1878,-264,103477,2
84.20462417602539,-743,1807,-242,103143,2
84.24517345428467,-614,1815,-248,103107,2
84.28464651107788,-732,1769,-297,103210,2
84.32459807395935,-667,1772,-275,103427,2
84.36457109451294,-643,1813,-213,103587,2
84.44347882270813,-642,1824,-133,103641,2
84.44417786598206,-574,1861,-118,103637,2
84.48357892036438,-615,1900,-177,103690,2
84.52355694770813,-737,1942,-213,103786,2
84.56364512443542,-751,1966,-214,103866,2
84.60364770889282,-720,1988,-289,103983,2
84.6436882019043,-763,1959,-343,103778,2
84.68361902236938,-751,1918,-371,103343,2
84.72356295585632,-693,1908,-293,103201,2
84.76356744766235,-644,1892,-287,103288,2
84.80359268188477,-760,1882,-288,103461,2
84.84360671043396,-839,1877,-285,103668,2
84.88362693786621,-780,1864,-231,103800,2
84.92256259918213,-598,1845,-160,103786,2
84.96273040771484,-469,1851,-213,103774,2
85.00260519981384,-680,1825,-289,103820,2
85.04267477989197,-709,1860,-299,103923,2
85.08258152008057,-731,1882,-282,104018,2
85.12261843681335,-707,1913,-270,103952,2
85.16261267662048,-737,1910,-326,103481,2
85.20315289497375,-793,1924,-369,103308,2
85.24265313148499,-909,1906,-240,103320,2
85.28259515762329,-714,1854,-162,103464,2
85.32261061668396,-455,1819,-175,103607,2
85.36283588409424,-479,1821,-300,103745,2
85.40259909629822,-691,1828,-403,103773,2
85.44159293174744,-894,1825,-420,103776,2
85.4816300868988,-855,1819,-384,103807,2
85.52166676521301,-735,1901,-361,103906,2
85.56188297271729,-934,2031,-335,104051,2
85.60165309906006,-1086,2040,-210,103944,2
85.64163565635681,-942,1860,-119,103436,2
85.68160891532898,-719,1688,-118,103155,2
85.72160649299622,-424,1599,-139,103116,2
85.7618362903595,-271,1640,-331,103212,2
85.80163788795471,-594,1820,-549,103439,2
85.84162497520447,-1308,1932,-622,103597,2
85.88163733482361,-1339,1916,-568,103624,2
85.92168545722961,-884,1874,-394,103611,2
85.96062207221985,-677,1822,-373,103661,2
86.0006115436554,-710,1823,-506,103741,2
86.04063582420349,-950,1862,-573,103869,2
86.0806953907013,-1217,1898,-508,103743,2
86.12062621116638,-1144,1835,-462,103241,2
86.16061091423035,-843,1745,-318,103009,2
86.20064067840576,-696,1694,-318,102984,2
86.2406120300293,-715,1708,-366,103088,2
86.28071141242981,-787,1760,-411,103234,2
86.3206045627594,-895,1831,-426,103355,2
86.36067533493042,-999,1843,-435,103337,2
86.40064811706543,-974,1887,-458,103362,2
86.4406087398529,-978,1924,-427,103419,2
86.47961664199829,-1020,1975,-336,103534,2
86.51961374282837,-906,1951,-257,103643,2
86.55961012840271,-733,1824,-263,103602,2
86.59964179992676,-832,1745,-211,103156,2
86.63966989517212,-834,1723,-105,102923,2
86.67964816093445,-914,1716,1,102942,2
86.7196192741394,-809,1746,116,103013,2
86.75962996482849,-772,1766,155,103138,2
86.79960060119629,-804,1799,149,103193,2
86.83971858024597,-759,1816,137,103199,2
86.8795804977417,-728,1864,139,103195,2
86.91961312294006,-739,1908,110,103280,2
86.95863389968872,-761,1932,144,103397,2
86.99860715866089,-694,1946,147,103505,2
87.03857612609863,-733,1922,107,103628,2
87.07973289489746,-802,1896,61,103474,2
87.11862063407898,-879,1883,28,103152,2
87.15858793258667,-888,1871,50,103094,2
87.19858050346375,-797,1831,64,103166,2
87.23860001564026,-690,1789,38,103295,2
87.27897143363953,-645,1788,-38,103436,2
87.31859016418457,-693,1828,-113,103513,2
87.35874152183533,-802,1861,-89,103543,2
87.39861011505127,-868,1903,-73,103600,2
87.4386236667633,-960,1899,-31,103693,2
87.47773575782776,-918,1864,-60,103793,2
87.51763463020325,-863,1839,-75,103895,2
87.55767822265625,-839,1828,-123,104010,2
87.59766602516174,-853,1830,-168,103840,2
87.63774871826172,-857,1835,-226,103569,2
87.67784404754639,-880,1853,-275,103549,2
87.71758031845093,-909,1838,-317,103671,2
87.75768041610718,-944,1832,-345,103821,2
87.79775476455688,-926,1832,-280,103986,2
87.8376715183258,-932,1850,-202,104046,2
87.87774467468262,-896,1843,-193,104063,2
87.91769862174988,-932,1811,-229,104104,2
87.95675826072693,-950,1785,-194,104173,2
87.99662351608276,-905,1750,-181,104248,2
88.03660416603088,-868,1736,-196,104342,2
88.07658672332764,-874,1742,-225,104367,2
88.11663174629211,-950,1748,-202,104108,2
88.15665102005005,-978,1789,-178,103975,2
88.1968104839325,-987,1789,-150,104049,2
88.23664665222168,-949,1788,-170,104161,2
88.27666091918945,-878,1770,-208,104296,2
88.31671380996704,-911,1776,-272,104348,2
88.35669088363647,-1014,1797,-315,104354,2
88.39670467376709,-1079,1819,-289,104399,2
88.4356415271759,-1044,1847,-235,104469,2
88.47561359405518,-995,1828,-204,104532,2
88.51569366455078,-952,1790,-256,104628,2
88.5556309223175,-978,1763,-319,104689,2
88.5966784954071,-1000,1746,-328,104478,2
88.63563585281372,-989,1760,-281,104295,2
88.67575073242188,-1013,1742,-230,104345,2
88.7157871723175,-972,1718,-190,104433,2
88.75561738014221,-869,1702,-191,104551,2
88.79607772827148,-879,1707,-240,104655,2
88.83565998077393,-949,1719,-285,104691,2
88.87564134597778,-954,1748,-289,104709,2
88.9146499633789,-986,1767,-291,104737,2
88.95462799072266,-979,1803,-309,104790,2
88.99463105201721,-1040,1817,-327,104883,2
89.03467130661011,-1074,1834,-321,104957,2
89.07464528083801,-1086,1812,-351,104936,2
89.11479020118713,-1075,1784,-326,104629,2
89.15466117858887,-1035,1775,-312,104541,2
89.19473433494568,-1036,1757,-321,104593,2
89.23470973968506,-1029,1731,-308,104723,2
89.27463412284851,-1002,1732,-273,104842,2
89.31457614898682,-954,1719,-260,104896,2
89.35372591018677,-992,1715,-321,104864,2
89.39367508888245,-1023,1709,-353,104852,2
89.4336199760437,-1042,1744,-305,104894,2
89.4736864566803,-1036,1734,-250,104982,2
89.51363110542297,-948,1746,-235,105025,2
89.55363941192627,-971,1754,-277,105069,2
89.593679189682,-1042,1751,-329,104807,2
89.63361692428589,-990,1750,-300,104615,2
89.67364478111267,-987,1741,-300,104624,2
89.71366381645203,-1007,1727,-388,104645,2
89.75368189811707,-1038,1759,-367,104744,2
89.79371428489685,-1113,1806,-362,104869,2
89.83263754844666,-1259,1791,-321,104888,2
89.87268042564392,-1092,1764,-200,104864,2
89.9127402305603,-910,1693,-164,104883,2
89.95266675949097,-799,1675,-232,104929,2
89.99271893501282,-814,1679,-279,104990,2
