Timestamp,AccX,AccY,AccZ,Heart_IR,Phase
0.023679256439208984,-414,1724,1777,125637,0
0.06245827674865723,-259,1572,1620,125629,0
0.10290050506591797,-305,1501,1510,125588,0
0.14238619804382324,-374,1448,1335,125560,0
0.18137884140014648,-468,1452,1339,125575,0
0.22136402130126953,-501,1444,1426,125606,0
0.26138854026794434,-437,1395,1470,125627,0
0.3014347553253174,-441,1333,1462,125636,0
0.34143948554992676,-347,1332,1431,125626,0
0.38149595260620117,-347,1315,1450,125614,0
0.42224812507629395,-319,1324,1479,125551,0
0.46143007278442383,-360,1316,1477,125287,0
0.5013196468353271,-319,1340,1478,125116,0
0.5414767265319824,-303,1381,1560,125072,0
0.5813107490539551,-247,1431,1594,125134,0
0.6203556060791016,-184,1486,1577,125188,0
0.660301685333252,-148,1509,1556,125254,0
0.7006044387817383,-216,1498,1438,125264,0
0.7406406402587891,-313,1458,1292,125222,0
0.7810468673706055,-469,1392,1230,125129,0
0.8207027912139893,-434,1305,1184,125076,0
0.8603456020355225,-557,1258,1325,125039,0
0.9003238677978516,-499,1219,1310,124957,0
0.9403374195098877,-480,1225,1382,124903,0
0.9802982807159424,-792,1397,1683,124903,0
1.0205016136169434,-899,1450,2083,124927,0
1.0603594779968262,-599,1313,2099,125019,0
1.0993621349334717,-623,1223,1962,125161,0
1.1393465995788574,-722,1090,1875,125175,0
1.1794803142547607,-820,959,1904,124981,0
1.2197673320770264,-1150,892,2023,124801,0
1.2593536376953125,-1163,791,2422,124783,0
1.2992825508117676,-1002,821,3029,124844,0
1.3392078876495361,-922,484,3363,124896,0
1.3800163269042969,-505,166,3246,125029,0
1.419233798980713,-376,-164,2982,125213,0
1.459285020828247,-418,-262,2806,125364,0
1.4992525577545166,-393,-421,2679,125625,0
1.5381486415863037,-737,-525,2947,125834,0
1.5783581733703613,-743,-1139,2293,126147,0
1.618290901184082,-263,-1734,2038,126445,0
1.6581945419311523,-472,-1760,947,126796,0
1.6981806755065918,-280,-1365,391,126996,0
1.7382590770721436,-443,-1188,295,127075,0
1.7783162593841553,-820,-940,-317,127048,0
1.8181874752044678,-983,-660,-366,127070,0
1.858079433441162,-1144,-613,0,126691,0
1.8982863426208496,-1488,-2036,-456,125950,0
1.938584804534912,-2191,-2467,851,125159,0
1.9771881103515625,-3040,-1509,2617,124945,0
2.0176429748535156,-2823,-1698,2613,124998,0
2.0573556423187256,-3032,-1444,3123,125460,0
2.0971999168395996,-2137,-3098,2738,126084,0
2.1374387741088867,-2193,-3420,3526,127102,0
2.177424907684326,-2090,-3655,2775,126950,0
2.217168092727661,-2313,-3911,1304,126990,0
2.258314371109009,-1663,-4363,1941,126986,0
2.2971644401550293,-1501,-3069,1860,127055,0
2.3371152877807617,-1383,-2258,2286,127232,0
2.3772218227386475,-899,-1877,1915,127702,0
2.417367696762085,-200,-1484,2212,127558,0
2.4560885429382324,397,-2703,1184,126777,0
2.496098041534424,658,-2224,150,126514,0
2.536106824874878,-924,-2272,-2243,126225,0
2.576131582260132,-2364,-632,-1749,125668,0
2.6161153316497803,-2511,-1531,809,125531,0
2.6561686992645264,-3623,-940,2374,124849,0
2.6961259841918945,-3596,-996,2874,124822,0
2.736135959625244,-3672,-1253,2178,125642,0
2.7761478424072266,-3739,-1867,2771,126761,0
2.8161160945892334,-3301,-1205,3021,127643,0
2.856796979904175,-1301,-308,3241,127186,0
2.8951029777526855,717,-1490,2442,126152,0
2.935084581375122,732,-2505,494,124853,0
2.9751358032226562,-804,-2127,-2556,124153,0
3.015132188796997,-2442,-698,-3952,124471,0
3.0555620193481445,-2963,-1556,-1218,125412,0
3.0951590538024902,-4137,-282,1442,126007,0
3.1351115703582764,-4371,177,1502,125917,0
3.1750991344451904,-4017,-97,911,126494,0
3.2151334285736084,-3294,152,2160,128059,0
3.2553720474243164,-965,105,3302,128915,0
3.295351028442383,580,-1342,2293,127586,0
3.3351616859436035,604,-1659,-113,127067,0
3.3742098808288574,-894,-1445,-2052,126827,0
3.4145028591156006,-1416,-925,-2137,126640,0
3.4545211791992188,-2866,-1440,-1802,126657,0
3.4942145347595215,-4634,-905,241,126735,0
3.5448193550109863,-4823,-986,1866,125822,0
3.604780912399292,-4576,-703,2459,125917,0
3.61440372467041,-3994,-1111,2474,126414,0
3.654247283935547,-2925,-818,2684,126937,0
3.694108486175537,-1590,-864,3755,127237,0
3.734165668487549,261,-857,2698,127003,0
3.7740983963012695,90,-702,1502,126678,0
3.8131375312805176,-333,-602,-123,126249,0
3.8532440662384033,-375,-444,-586,126043,0
3.893104314804077,-1028,52,-165,125945,0
3.933199405670166,-1207,-97,366,125878,0
3.9734034538269043,-1042,-452,723,125874,0
4.013123035430908,-1669,-410,1147,125891,0
4.053595542907715,-1771,-1385,797,125729,0
4.0934062004089355,-2082,-874,1190,125692,0
4.133175373077393,-2090,-1617,2048,125609,0
4.173127174377441,-2061,-1510,2058,125471,0
4.213357925415039,-1707,-1753,2242,125156,0
4.2521443367004395,-1302,-2371,2872,124643,0
4.292158842086792,-1211,-2199,2549,124502,0
4.332099199295044,-398,-3565,2558,124309,0
4.372093439102173,-748,-3728,3657,123556,0
4.412099599838257,-820,-3974,4126,123329,0
4.452271223068237,-1031,-4968,2083,123163,0
4.492135047912598,-1604,-4922,1585,122822,0
4.5321149826049805,-1994,-4405,1660,122736,0
4.5721471309661865,-1644,-4102,1523,122780,0
4.612107992172241,-1428,-3509,1613,122717,0
4.652113676071167,-1001,-2956,1531,123051,0
4.691171407699585,-1132,-2780,1884,123440,0
4.731076240539551,-387,-2854,1057,124216,0
4.771123647689819,132,-2186,1012,124933,0
4.8111162185668945,377,-2456,324,125371,0
4.851136922836304,779,-1461,19,125713,0
4.891104459762573,320,-1181,-575,125709,0
4.931132793426514,-238,-510,-1055,125749,0
4.9711081981658936,-841,-80,-1164,125668,0
5.011106967926025,-723,-51,-732,125744,0
5.051098346710205,-1158,-102,-305,125832,0
5.091366291046143,-1498,-360,687,125971,0
5.131139516830444,-1383,-758,630,125812,0
5.170104026794434,-1537,-1133,1115,125061,0
5.210102558135986,-1727,-2359,874,123421,0
5.25014591217041,-1530,-2493,1479,123015,0
5.2901060581207275,-1085,-3170,3840,122789,0
5.330168008804321,-973,-2639,2487,122485,0
5.370116233825684,-1032,-3266,3484,122468,0
5.410135746002197,-1195,-3481,2711,122443,0
5.450110673904419,-1404,-3746,2905,122603,0
5.490331649780273,-1697,-5574,3276,123061,0
5.530109882354736,-2660,-4830,2386,123032,0
5.57014536857605,-2248,-5314,801,122515,0
5.60926628112793,-2768,-3662,934,122691,0
5.649121284484863,-2086,-2816,1068,122916,0
5.689677000045776,-1889,-2246,1053,123171,0
5.729136228561401,-1334,-1827,761,123352,0
5.769132852554321,-1091,-2066,787,123269,0
5.809141159057617,-1112,-1809,927,123450,0
5.84923791885376,-811,-2024,974,123820,0
5.889427900314331,-686,-1873,1216,124254,0
5.92930006980896,-340,-2255,1094,124389,0
5.970213174819946,-418,-2292,650,124286,0
6.009122848510742,-338,-1321,-310,124400,0
6.048082590103149,482,-1240,-656,124274,0
6.0883166790008545,644,-676,-1255,124749,0
6.128121614456177,493,-838,-1155,124976,0
6.168105363845825,-207,-931,-1045,125010,0
6.208164215087891,-1294,-1442,-407,124896,0
6.248104810714722,-1848,-1409,324,124745,0
6.288144111633301,-2507,-1544,1604,124357,0
6.3281614780426025,-2154,-1912,1187,123437,0
6.368122339248657,-1793,-2010,2277,122910,0
6.408128023147583,-1803,-1801,2170,122264,0
6.4484007358551025,-952,-2671,2117,121871,0
6.4881432056427,-1447,-3658,2665,121886,0
6.527534484863281,-1193,-3054,3414,121979,0
6.5678863525390625,-2031,-4494,2660,121930,0
6.607118844985962,-2488,-4949,2275,121946,0
6.647137403488159,-1690,-5898,1901,121525,0
6.687189817428589,-1617,-5232,842,121552,0
6.727130889892578,-2185,-3939,1030,121593,0
6.767154693603516,-1965,-3486,693,121664,0
6.807121753692627,-1720,-2717,176,121801,0
6.847128391265869,-1109,-2339,326,122177,0
6.887131929397583,-1015,-1961,963,122581,0
6.927347660064697,-1421,-1780,1270,122988,0
6.9661242961883545,-1070,-2102,1408,123240,0
7.006307125091553,-850,-2459,976,123164,0
7.046135663986206,-556,-2457,1200,123114,0
7.08616828918457,-824,-2588,645,122891,0
7.126124382019043,-536,-2562,392,122686,0
7.1661388874053955,-314,-2544,-1118,122648,0
7.2061192989349365,197,-1369,-1332,123282,0
7.246117353439331,132,-987,-943,123703,0
7.286174297332764,-577,-1146,-1221,123928,0
7.326158285140991,-1381,-1304,-499,123729,0
7.366132497787476,-2337,-678,505,123317,0
7.405174255371094,-2531,-1193,1679,123225,0
7.445126295089722,-2313,-1835,1797,122890,0
7.485325336456299,-1828,-1349,2767,122593,0
7.525190591812134,-1600,-1985,2917,122435,0
7.565149307250977,-1481,-2822,2919,122253,0
7.605333089828491,-1580,-2718,2121,122004,0
7.645580768585205,-1512,-5056,2664,121700,0
7.685161828994751,-2712,-4800,2752,121797,0
7.725177764892578,-1691,-6879,2813,121652,0
7.7653398513793945,-2452,-5743,2438,121785,0
7.80535888671875,-2310,-5444,1592,121422,0
7.845335006713867,-2046,-4169,852,120982,0
7.885399103164673,-1465,-2601,857,121194,0
7.924196481704712,-1000,-1650,483,121681,0
7.964318037033081,-1697,-751,1013,121944,0
8.004367589950562,-1765,-1395,1025,122125,0
8.044243812561035,-1738,-1513,2286,122410,0
8.084158182144165,-1249,-2063,2046,122640,0
8.124879121780396,-725,-2690,2002,122753,0
8.164398431777954,-519,-2358,1265,123181,0
8.204291820526123,-378,-2826,576,123263,0
8.244359254837036,-770,-2215,-42,123016,0
8.28432321548462,-1157,-1029,-871,122626,0
8.323425769805908,-1434,144,-467,122353,0
8.363318681716919,-1287,256,-128,122417,0
8.403320550918579,-1238,311,707,122716,0
8.443430423736572,-871,-252,1109,122803,0
8.483333826065063,-1108,-337,1631,122900,0
8.52370572090149,-1326,-505,1403,122758,0
8.563221454620361,-1454,-1354,1342,122472,0
8.603327512741089,-961,-1837,2374,122442,0
8.643285989761353,-1475,-1456,1872,122353,0
8.683323860168457,-747,-3414,2824,122453,0
8.724220991134644,-1811,-2592,1536,122418,0
8.764015913009644,-2162,-4959,2575,122266,0
8.802319049835205,-2696,-4124,2332,122295,0
8.843066453933716,-1280,-6031,3448,121987,0
8.882167100906372,-2525,-5542,1925,121829,0
8.922648191452026,-2946,-5252,2941,121800,0
8.963140726089478,-3264,-5390,1596,121493,0
9.00291132926941,-2374,-4151,1264,121489,0
9.042166233062744,-1703,-2736,934,121694,0
9.082152605056763,-1245,-1131,646,121905,0
9.122263193130493,-996,-834,724,121735,0
9.16215968132019,-894,-1033,565,121954,0
9.202173233032227,-1016,-1238,1337,122422,0
9.241787195205688,-605,-1569,1898,123002,0
9.282186508178711,-196,-2027,1739,123386,0
9.321299314498901,-454,-2063,1513,123747,0
9.361799716949463,-486,-1686,1709,124267,0
9.401544094085693,-600,-2479,790,123799,0
9.44118046760559,-1486,-1945,-399,123664,0
9.481189489364624,-1671,-385,-1036,123326,0
9.52124309539795,-1504,857,-859,122685,0
9.561151027679443,-1012,393,-332,122649,0
9.601139783859253,-504,200,-45,122759,0
9.641160488128662,-513,-893,319,122827,0
9.680155515670776,-610,-1108,857,123106,0
9.720169305801392,-990,-1847,1062,123165,0
9.760161399841309,-858,-2562,1243,123283,0
9.800160646438599,-456,-2853,1590,123217,0
9.840158939361572,-691,-3318,1672,123319,0
9.880157470703125,-1029,-4265,1625,122841,0
9.92027235031128,-1774,-3980,2001,122538,0
9.960163116455078,-1408,-4794,3326,122420,0
10.00014853477478,-2498,-3942,3183,122526,0
10.040163278579712,-2316,-5177,2720,122050,0
10.080191850662231,-2608,-4232,3038,121831,0
10.1193528175354,-2808,-4601,2381,121794,0
10.15918779373169,-3096,-4160,2288,121964,0
10.199364423751831,-2671,-3620,2054,121971,0
10.240054845809937,-2313,-2564,2124,122034,0
10.279175281524658,-1300,-1664,1633,122164,0
10.31997036933899,-838,-187,1642,122279,0
10.359126806259155,-871,369,1285,122451,0
10.399770259857178,-775,61,1490,122678,0
10.440135955810547,-343,-556,1392,122520,0
10.47998857498169,698,-519,1614,122589,0
10.51914930343628,1215,-924,1461,123118,0
10.559569120407104,636,-1403,1214,123443,0
10.598143815994263,820,-1508,907,123708,0
10.638144254684448,144,-2636,1071,123845,0
10.678334951400757,-1032,-2145,852,123584,0
10.71814513206482,-1620,-197,893,123282,0
10.758204460144043,-1567,306,600,123394,0
10.79824161529541,-698,337,1249,124138,0
10.838132381439209,-373,-577,956,123868,0
10.878660440444946,-781,-717,854,123706,0
10.918166637420654,-937,-1509,1153,123712,0
10.958517074584961,-597,-2144,1936,123623,0
10.998713731765747,-901,-2205,2057,123472,0
11.038206815719604,-936,-2662,2113,123073,0
11.077172040939331,-1445,-2419,2202,122836,0
11.117218017578125,-1110,-3435,2805,122679,0
11.157429456710815,-1677,-2684,2668,122736,0
11.197165727615356,-1487,-3898,2252,122540,0
11.237180471420288,-2741,-3453,1463,122628,0
11.27735686302185,-2056,-4547,2152,122429,0
11.317188262939453,-2917,-4201,1954,122329,0
11.35764193534851,-2302,-4378,2430,122135,0
11.397205114364624,-2537,-3830,1892,121916,0
11.437194108963013,-2029,-3315,1846,121964,0
11.477375745773315,-1483,-2151,2083,121984,0
11.516166925430298,-878,-1297,1895,121947,0
11.556352376937866,-348,-510,1631,121986,0
11.596153974533081,-266,-210,2030,122206,0
11.636397123336792,-178,-351,2210,122260,0
11.676167726516724,406,-865,2664,122242,0
11.71619725227356,443,-1419,2476,122335,0
11.756457090377808,452,-1611,2189,122767,0
11.796357870101929,-449,-1373,2708,123220,0
11.83617901802063,-446,-2129,1315,123619,0
11.87632703781128,-383,-2378,-86,123466,0
11.916343450546265,-1157,-788,-797,123055,0
11.95535135269165,-1606,38,-195,122933,0
11.995155572891235,-866,681,418,123081,0
12.035163164138794,-368,-39,226,123146,0
12.075147867202759,-300,-788,528,123421,0
12.115829706192017,-480,-1433,902,123205,0
12.155236005783081,-966,-1228,1062,123294,0
12.195398330688477,-1440,-2201,1633,123120,0
12.235177040100098,-1667,-1924,2294,123148,0
12.275182247161865,-1884,-1845,1897,122836,0
12.315189599990845,-1649,-2191,2678,122609,0
12.355215072631836,-2368,-1646,1949,122285,0
12.394338369369507,-1669,-3046,2015,121807,0
12.43434762954712,-2100,-1423,2121,121819,0
12.474186897277832,-2070,-3185,2349,121865,0
12.5142080783844,-1873,-1834,1524,121847,0
12.554180145263672,-1757,-3871,2498,121674,0
12.59418797492981,-1685,-3902,1763,121452,0
12.634180307388306,-2533,-4977,1058,121153,0
12.674209833145142,-1086,-5322,1104,121351,0
12.714198112487793,-1698,-3691,1770,121737,0
12.754339218139648,-1817,-3561,1176,121629,0
12.794379472732544,-2044,-2842,1110,121760,0
12.834178686141968,-1732,-2386,1146,121782,0
12.87317943572998,-1147,-2013,1009,121814,0
12.91335391998291,-981,-1328,1729,122050,0
12.953334093093872,-691,-1535,1464,121912,0
12.993885040283203,-371,-1237,1849,122121,0
13.033148527145386,26,-1639,1460,122110,0
13.073229789733887,368,-1442,1336,122326,0
13.11340045928955,-31,-1238,623,122481,0
13.153196334838867,784,-1006,458,122781,0
13.193391561508179,129,-900,-154,123067,0
13.233156442642212,90,-880,-437,122957,0
13.273357391357422,-584,-751,-393,123043,0
13.312167167663574,-1170,-410,328,123255,0
13.352318286895752,-1034,-298,704,123491,0
13.392494678497314,-1344,-353,1311,123635,0
13.43220043182373,-1166,-595,1165,123354,0
13.472343444824219,-1447,-975,1115,123193,0
13.512377977371216,-1786,-1888,1184,122596,0
13.552343606948853,-1450,-1541,2110,122718,0
13.592319011688232,-1477,-2506,2068,122572,0
13.632209777832031,-1204,-2629,1781,122374,0
13.672242403030396,-1675,-3799,2705,122221,0
13.71222472190857,-1047,-3265,1558,122076,0
13.772833824157715,-2310,-3964,2920,122154,0
13.79135775566101,-2258,-4287,1460,122095,0
13.83121919631958,-2437,-5245,2462,121940,0
13.871203660964966,-2158,-5074,2089,121699,0
13.911357402801514,-2542,-4561,1981,121550,0
13.951210498809814,-2695,-4129,1334,121502,0
13.991904258728027,-2502,-3372,1636,121630,0
14.031232833862305,-1801,-2833,1790,121661,0
14.071204423904419,-1323,-1588,1732,121646,0
14.111310243606567,-1368,-1053,1509,121669,0
14.151198863983154,-1276,-755,1263,121776,0
14.190440893173218,-1240,-525,1107,121879,0
14.230324029922485,-611,-617,1002,122031,0
14.270313024520874,-223,-492,1141,122048,0
14.310166358947754,390,-493,989,122143,0
14.350316524505615,1098,-658,912,122507,0
14.390198469161987,1239,-910,789,122944,0
14.430325508117676,529,-1328,527,123319,0
14.47019338607788,-353,-1608,254,123425,0
14.510220766067505,-1484,-1023,222,123126,0
14.550235986709595,-1579,-844,324,122874,0
14.590191125869751,-1739,-766,562,122782,0
14.630187034606934,-2118,-621,1121,122930,0
14.669275522232056,-1584,-1209,1731,123051,0
14.70923376083374,-1947,-1130,2096,122959,0
14.749397993087769,-1529,-2072,1574,122226,0
14.789244413375854,-1619,-1304,2278,121783,0
14.82920503616333,-1944,-2333,2856,121632,0
14.869221210479736,-1888,-2055,2666,121383,0
14.909199237823486,-2152,-3178,3403,121302,0
14.949298620223999,-2544,-2439,2372,121337,0
14.989323616027832,-1844,-4303,3048,121333,0
15.029212713241577,-1899,-4060,3181,121493,0
15.069221496582031,-2351,-4332,2912,121528,0
15.109215259552002,-3115,-4277,2283,121778,0
15.14934229850769,-2399,-3734,1769,121681,0
15.188207387924194,-2166,-3029,1184,121768,0
15.22820234298706,-1566,-1860,1276,121969,0
15.268206596374512,-1076,-1270,1215,121998,0
15.308205366134644,-1037,-665,1616,122171,0
15.348226308822632,-789,-825,1833,122274,0
15.38820505142212,-1102,-981,1910,122342,0
15.42852234840393,-453,-1160,2637,122395,0
15.468366622924805,-504,-1520,1524,122270,0
15.508180856704712,188,-1400,1493,122666,0
15.548198699951172,519,-1211,1006,123148,0
15.58829951286316,937,-1490,667,123685,0
15.628632545471191,370,-1763,-188,124031,0
15.667334079742432,-590,-1265,-364,124122,0
15.707329034805298,-1112,-497,267,124285,0
15.747316122055054,-1501,246,954,124410,0
15.787332773208618,-1052,645,1309,123569,0
15.82759690284729,-454,-377,587,123179,0
15.867200136184692,-472,-698,732,123729,0
15.90733027458191,-588,-1113,1426,124185,0
15.947232961654663,-1159,-1278,1232,124503,0
15.987321376800537,-614,-2043,2202,124823,0
16.027990102767944,-1288,-1723,1808,124890,0
16.067354440689087,-788,-3190,2188,124630,0
16.10735011100769,-1387,-2250,1635,124385,0
16.146340370178223,-477,-4202,3712,123794,0
16.186320543289185,-1407,-2776,3093,123306,0
16.226381301879883,-1033,-3893,4526,123031,0
16.266300678253174,-1528,-4165,4913,122984,0
16.30619764328003,-879,-4990,4868,122907,0
16.346285581588745,464,-4124,3242,123225,0
16.386295795440674,-27,-2630,2903,123042,0
16.42647933959961,-161,-1706,1964,122948,0
16.466280937194824,241,-1000,1070,123269,0
16.50627112388611,162,-385,1357,123948,0
16.546419620513916,483,-16,793,124451,0
16.586181640625,625,376,1659,124653,0
16.626302003860474,739,744,2147,124759,0
16.665214776992798,956,1097,2791,124870,0
16.70529270172119,899,1392,2977,124934,0
16.745299816131592,1194,1389,2746,124956,0
16.78531837463379,1364,1130,2628,124848,0
16.82530641555786,904,847,1946,124836,0
16.865327835083008,635,754,2011,125057,0
16.90531587600708,728,249,1385,125172,0
16.9453067779541,690,-217,817,125426,0
16.985754251480103,581,-482,356,125446,0
17.025319814682007,323,-337,-451,125523,0
17.065284967422485,383,-1115,176,125241,0
17.105291604995728,-508,-1391,-91,124714,0
17.144297122955322,-750,-1285,552,124662,0
17.18432903289795,-1196,-901,1433,124535,0
17.22429323196411,-1096,-33,1427,124815,0
17.26429295539856,-1600,-277,989,125056,0
17.30428147315979,-1154,-740,719,125098,0
17.344326972961426,-770,-1339,1125,124985,0
17.384303092956543,-679,-2360,683,124778,0
17.42429518699646,-831,-2204,999,124833,0
17.464376211166382,-971,-3443,1506,125088,0
17.504379987716675,-1091,-3265,1341,125327,0
17.544324159622192,-965,-4225,2394,125469,0
17.58430242538452,-1601,-4227,1201,125173,0
17.62332558631897,-1573,-4765,2511,124546,0
17.663321018218994,-2091,-4823,1959,123439,0
17.703309535980225,-2959,-4515,2474,122145,0
17.743343353271484,-2578,-4205,2269,121878,0
17.78335165977478,-2613,-3459,2381,122055,0
17.823366403579712,-1571,-2534,2295,122373,0
17.86378312110901,13,-1983,1682,122683,0
17.90331482887268,-180,-1254,517,123116,0
17.94328737258911,-415,-926,13,123723,0
17.983311653137207,-885,-104,-17,124170,0
18.02367353439331,-364,40,364,124300,0
18.06330156326294,-81,641,557,124488,0
18.102284908294678,102,1036,1033,124633,0
18.14271306991577,347,1203,1055,124822,0
18.18228769302368,472,1388,1308,124927,0
18.22227954864502,506,1422,1426,124990,0
18.262468814849854,365,1574,1623,125034,0
18.302311420440674,576,1342,1466,125068,0
18.34228515625,280,1384,1340,124842,0
18.382330656051636,73,1325,1181,124101,0
18.422289609909058,-236,1461,1292,123692,0
18.462294101715088,-351,1521,1586,123805,0
18.50228786468506,-670,1622,1810,123991,0
18.542299270629883,-456,1508,1615,124233,0
18.5813205242157,-196,1861,1909,124442,0
18.6213059425354,-923,1349,1563,124628,0
18.66135573387146,-1168,985,680,124982,0
18.70146632194519,-835,1392,1260,125147,0
18.74129343032837,-714,1167,1001,124876,0
18.781310319900513,-957,1101,776,124753,0
18.8214852809906,-962,1038,646,124906,0
18.861334800720215,-1209,820,392,125103,0
18.901288747787476,-1077,536,366,125281,0
18.941837072372437,-1928,488,546,125137,0
18.98128604888916,-2217,236,361,125218,0
19.02169942855835,-2140,162,578,125475,0
19.06072759628296,-2565,-342,-101,125443,0
19.10075855255127,-3118,-470,-178,125354,0
19.140687704086304,-3551,-525,-206,125548,0
19.18032193183899,-5046,-412,818,125625,0
19.220319271087646,-4323,-927,-1127,125214,0
19.26028084754944,-3070,-742,-539,124974,0
19.30026912689209,-2740,-36,161,125002,0
19.340299129486084,-2018,202,1251,125184,0
19.38029718399048,-192,243,2493,125077,0
19.42025876045227,400,42,3288,124719,0
19.46030044555664,868,-442,3047,124608,0
19.500271320343018,1520,-802,2369,124743,0
19.53928828239441,1325,-851,1457,124881,0
19.579307794570923,1148,-1073,792,124991,0
19.619367837905884,1309,-965,584,125442,0
19.65926504135132,802,-1019,730,125813,0
19.699294805526733,196,-796,633,125867,0
19.739327430725098,-257,-673,537,125900,0
19.77928400039673,-728,-227,466,125119,0
19.819291591644287,-849,-199,466,124266,0
19.859291553497314,-784,-387,445,123877,0
19.89957022666931,-746,-762,618,123831,0
19.93928360939026,-840,-1539,713,123599,0
19.97931480407715,-865,-2027,1123,123143,0
20.018322229385376,-1194,-2837,1667,122720,0
20.058284282684326,-605,-3117,1923,122346,0
20.098292112350464,-1028,-3501,3150,122093,0
20.13827085494995,-797,-3342,3047,122016,0
20.17832326889038,-960,-3921,3990,121920,0
20.218331336975098,-950,-3438,3876,121799,0
20.25829839706421,-404,-4058,4293,121686,0
20.29868745803833,-796,-4331,4233,121748,0
20.338369369506836,-608,-4667,2896,121896,0
20.378326416015625,-700,-4221,2316,121734,0
20.418513298034668,-900,-3305,2327,121492,0
20.457301139831543,-69,-2158,2750,121548,0
20.497543811798096,-746,-1394,2698,121784,0
20.537297248840332,-439,-901,3048,122033,0
20.577319145202637,-891,-372,3024,122248,0
20.61732840538025,-1399,-118,2342,122425,0
20.65730381011963,-1621,-140,1709,122525,0
20.69734501838684,-1490,-127,1143,122745,0
20.73730707168579,-1165,-79,623,123359,0
20.77729868888855,-601,159,463,123823,0
20.81726884841919,688,323,111,124028,0
20.857290029525757,1051,-84,293,124370,0
20.897473096847534,558,-210,558,124625,0
20.93626594543457,297,-899,528,124614,0
20.97628140449524,-133,-1866,347,124659,0
21.016294717788696,-835,-3224,480,124456,0
21.056280851364136,-2397,-4081,641,123707,0
21.096776485443115,-3085,-1772,2246,122470,0
21.136298179626465,-2691,-345,3093,122246,0
21.17633032798767,-1291,-1564,2155,122156,0
21.21630358695984,-1172,-2428,1901,122497,0
21.256322145462036,-1007,-2469,2182,122847,0
21.29655432701111,-919,-2965,2528,123077,0
21.33629059791565,-977,-2433,3079,123123,0
21.375346660614014,-162,-2587,3678,122759,0
21.41532874107361,-1749,-2367,2955,122891,0
21.455345630645752,-1291,-2595,3897,122422,0
21.49530529975891,-1029,-2510,4181,122270,0
21.535337448120117,-581,-2333,3740,122361,0
21.575798749923706,-804,-1897,2580,122405,0
21.61533284187317,-1254,-1650,2147,122381,0
21.655298948287964,-1405,-1383,1813,122412,0
21.69529128074646,-2138,-1032,2112,122502,0
21.735308408737183,-1509,-880,2604,122691,0
21.77529263496399,-936,-592,3050,123186,0
21.814261198043823,-92,-643,2492,123299,0
21.854280948638916,594,-1270,2128,123312,0
21.89427423477173,1676,-2531,235,122752,0
21.93443512916565,700,-2137,-1650,124303,0
21.974305391311646,-2772,-691,-3866,123905,0
22.014304637908936,-2396,-3837,800,123010,0
22.05431056022644,-2185,-1604,3399,123007,0
22.094269037246704,-2713,397,4730,122830,0
22.134366035461426,-1605,-1823,2975,123091,0
22.17434573173523,-1825,-1892,5213,124696,0
22.214296102523804,-651,-1176,5382,125164,0
22.254300832748413,9,-1221,3846,125451,0
22.293286561965942,2903,-1278,3970,125050,0
22.33333158493042,3274,-2427,889,123642,0
22.373449325561523,1965,-3515,-2347,123579,0
22.413341760635376,-1047,-4156,-4402,123919,0
22.45338249206543,-4305,-2653,-2858,123379,0
22.493294715881348,-3063,-572,2865,121824,0
22.53346300125122,-1533,1666,4795,121474,0
22.573349952697754,-1408,112,3273,122941,0
22.613410234451294,-127,-339,3928,124284,0
22.653456926345825,2223,-1633,3686,123793,0
22.693398475646973,4929,-1179,2662,122724,0
22.732351541519165,3171,-2263,113,121247,0
22.772369623184204,1499,-3508,-1499,121109,0
22.81240177154541,-1468,-4778,-3704,121361,0
22.852404594421387,-4433,-3602,-2843,121384,0
22.892460107803345,-5472,-3226,2394,121907,0
22.933188676834106,-2128,993,5553,121833,0
22.972455739974976,-1775,138,4587,123834,0
23.01235842704773,353,-1245,4094,125400,0
23.052440881729126,2169,-2806,3843,125373,0
23.092366218566895,5539,-2590,3059,125024,0
23.132418870925903,4372,-3224,568,124371,0
23.171453714370728,1423,-4503,-610,123594,0
23.211421251296997,-1497,-6657,-1776,123310,0
23.251465797424316,-5387,-4692,-4830,122641,0
23.291457891464233,-6578,-5490,-1287,123613,0
23.3319194316864,-5408,1360,5335,123522,0
23.371417760849,-1400,440,4612,123554,0
23.411459922790527,1550,-155,4498,125870,0
23.451693058013916,1837,-1468,3873,126507,0
23.49139094352722,3357,-2281,2322,125571,0
23.5315682888031,5647,-4227,695,124503,0
23.571402072906494,2927,-6045,-1579,123906,0
23.61144495010376,-1017,-7643,-2995,123394,0
23.650402069091797,-5677,-5384,-3466,123067,0
23.690378189086914,-6550,-4702,-382,123233,0
23.7454833984375,-3727,168,3647,122733,0
23.77327251434326,-1766,206,3817,122237,0
23.810465097427368,21,-797,2868,122551,0
23.850361108779907,1450,-563,3195,122800,0
23.890361070632935,3181,-947,3162,122901,0
23.930496215820312,3604,-3307,1443,122232,0
23.970366716384888,687,-5730,-1152,122206,0
24.010530948638916,-2174,-5369,-3227,122374,0
24.050375938415527,-6783,-4261,-2588,122484,0
24.08940625190735,-6847,-1971,1561,122382,0
24.129382848739624,-3758,-852,2184,122632,0
24.169379949569702,-3158,-112,3601,122861,0
24.20935606956482,1359,-690,4237,125442,0
24.249402046203613,2215,-424,3782,126012,0
24.289576053619385,2464,-2001,1751,125384,0
24.32939648628235,5761,-3669,794,123918,0
24.36938166618347,2963,-5747,-2030,122953,0
24.409470558166504,-374,-5148,-4676,122558,0
24.449390411376953,-3878,-4284,-2605,122452,0
24.489449501037598,-6602,-1213,2509,122474,0
24.52834701538086,-2796,404,2206,122826,0
24.5684072971344,-2324,693,2328,122871,0
24.6086003780365,797,-2235,2810,123710,0
24.648353576660156,3265,-804,5296,123755,0
24.68836212158203,2383,-1806,3442,123771,0
24.728391647338867,5536,-2489,2955,123469,0
24.768455266952515,7516,-4568,-187,123364,0
24.808834314346313,3362,-5192,-2149,123054,0
24.848403930664062,-949,-5790,-2771,122797,0
24.888424396514893,-6547,-5324,-920,122760,0
24.92841410636902,-4661,1612,6803,122656,0
24.968820810317993,-1249,562,3106,122511,0
25.007368326187134,2130,-2604,1686,122211,0
25.047363996505737,6333,-1910,2885,121508,0
25.087358236312866,2454,-3620,-3,121755,0
25.12752342224121,2357,-3835,-1699,122442,0
25.168023586273193,1862,-4360,-3284,122400,0
25.20738387107849,246,-4494,-4245,122179,0
25.247431755065918,-2309,-5327,-1966,122143,0
25.28739047050476,-6045,-5230,-1822,122039,0
25.327362775802612,-8020,144,2602,122310,0
25.367966175079346,-3466,1956,4556,122707,0
25.407514572143555,1490,-2931,2226,123308,0
25.446362257003784,6295,-2681,2676,123485,0
25.486424922943115,2392,-4054,-433,123218,0
25.526435613632202,1988,-4890,-2032,123084,0
25.56658363342285,1407,-4991,-5122,123068,0
25.606366395950317,-19,-6023,-2629,123060,0
25.646392583847046,-2916,-5168,-2001,122883,0
25.686450004577637,-8456,-2788,-1401,122148,0
25.726421356201172,-6673,1378,1905,121830,0
25.766613006591797,-2844,-104,2892,122102,0
25.806363344192505,3303,-3694,183,123015,0
25.84649920463562,2585,-3982,-1219,123005,0
25.88550591468811,1909,-5374,-4790,122766,0
25.925376892089844,1609,-5487,-4501,122806,0
25.966047763824463,-1500,-6124,-2021,122788,0
26.005401134490967,-6158,-5295,-2156,122472,0
26.04537081718445,-8156,646,1681,122527,0
26.085374116897583,-4240,2390,4390,122756,0
26.125404834747314,1791,-2711,2058,123404,0
26.165688514709473,3476,-3114,193,123654,0
26.205376386642456,940,-5004,-1261,123587,0
26.2454617023468,403,-5156,-4734,123431,0
26.285388708114624,-189,-5500,-4879,123459,0
26.324491500854492,-3414,-6808,-1600,123106,0
26.364602088928223,-8446,-6821,173,122306,0
26.40437412261963,-8836,995,3401,122136,0
26.444652318954468,-4060,2258,4651,122178,0
26.484384775161743,-1063,-1796,1462,122868,0
26.52480697631836,3991,-3385,492,123097,0
26.564591646194458,1540,-3650,-752,123235,0
26.604352235794067,389,-4596,-2652,123358,0
26.6443772315979,371,-4428,-8362,123175,0
26.684393882751465,-1999,-6521,-2393,123059,0
26.724381685256958,-7303,-9936,1690,122501,0
26.76335883140564,-7830,43,6004,122299,0
26.80350613594055,-2837,-195,5198,122549,0
26.843367099761963,36,-839,4453,123250,0
26.883381605148315,868,-938,4472,123297,0
26.92343044281006,2050,-2158,2341,123294,0
26.96346926689148,4473,-2349,2595,123117,0
27.00369691848755,4788,-3017,970,122648,0
27.04338049888611,1857,-4582,-1222,122285,0
27.08341670036316,-1979,-6068,-4162,122614,0
27.123395442962646,-6868,-5012,-2041,123485,0
27.16340160369873,-5231,-236,4038,122823,0
27.20233726501465,-1832,602,4109,122857,0
27.24236297607422,-450,-1343,4251,124443,0
27.282362461090088,-47,-1582,4179,124692,0
27.322357654571533,1065,-3067,2577,124309,0
27.362350702285767,3684,-2288,3822,124567,0
27.402357578277588,5520,-2015,3340,124622,0
27.442545890808105,3748,-3245,1148,124102,0
27.482375621795654,739,-6070,-1023,123390,0
27.52237582206726,-3711,-5585,-5864,123748,0
27.562395334243774,-6061,-5667,-926,123262,0
27.60325312614441,-5283,163,3460,122304,0
27.641393661499023,-1768,-1066,3429,122333,0
27.681365489959717,-264,-703,4827,125679,0
27.721364498138428,958,-1822,4496,125328,0
27.761398792266846,2765,-3112,3637,124690,0
27.801397562026978,5296,-2504,2740,124017,0
27.841347455978394,2722,-3196,502,123153,0
27.881407976150513,1422,-4985,-2681,122893,0
27.92138648033142,-2873,-4835,-4687,122756,0
27.961376190185547,-5961,-2563,790,122568,0
28.002060890197754,-5977,1973,4812,122361,0
28.04135823249817,-2719,619,4478,122286,0
28.080413818359375,-407,-1357,2488,122801,0
28.12036633491516,858,-698,2705,123389,0
28.160622596740723,1808,-1269,2645,123657,0
28.200659036636353,3789,-1637,2626,123535,0
28.240354299545288,4926,-1654,2148,123174,0
28.280369997024536,3255,-2471,290,122871,0
28.32040786743164,876,-4709,-2107,122678,0
28.360410451889038,-3429,-4507,-5034,122300,0
28.400378942489624,-6732,-3112,-569,121645,0
28.440357446670532,-5773,1090,4055,121260,0
28.48036479949951,-1871,-92,4146,121454,0
28.519348621368408,309,-1278,3510,124196,0
28.55937671661377,757,-1159,3497,124740,0
28.599531412124634,2206,-2398,2923,124629,0
28.63941502571106,5540,-2075,3575,124384,0
28.679410219192505,3951,-2343,1687,123582,0
28.719465732574463,1234,-4654,-922,122312,0
28.759451389312744,-2273,-4789,-4988,122503,0
28.799565076828003,-6533,-4331,-1783,122404,0
28.83941411972046,-6557,1379,4528,121797,0
28.879368782043457,-2088,122,3446,121872,0
28.919416189193726,-665,-932,3947,122874,0
28.95834755897522,-363,-271,4662,123579,0
28.998485565185547,659,-1837,3247,123782,0
29.038482189178467,3134,-2493,3841,124624,0
29.078375101089478,5372,-2411,2813,123342,0
29.118393659591675,1907,-3849,-281,122185,0
29.158376693725586,78,-5944,-4710,122405,0
29.19837260246277,-5487,-4543,-3664,122561,0
29.24049472808838,-8635,1220,2861,122107,0
29.27842950820923,-3592,32,4042,121961,0
29.31836247444153,-2211,-551,2847,122175,0
29.358351707458496,593,-1133,3710,123230,0
29.397932291030884,1613,-1190,3530,122902,0
29.437436819076538,2286,-1987,2247,122553,0
29.477376461029053,4409,-2666,1930,122262,0
29.517359972000122,3021,-3210,381,122027,0
29.557371854782104,766,-4918,-1140,122098,0
29.597395420074463,-1815,-5653,-4427,122109,0
29.637405395507812,-5927,-3112,-5606,123033,0
29.677385568618774,-5168,-3051,-1013,122759,0
29.71738076210022,-3461,1001,1956,121741,0
29.757379055023193,-1878,-328,2292,121502,0
29.79736566543579,-15,-1123,2986,124563,0
29.83634114265442,952,-386,3960,125552,0
29.87634801864624,2051,-1149,3146,125372,0
29.91636347770691,3758,-1332,3247,125084,0
29.956396341323853,3239,-1799,1733,123978,0
29.996336936950684,1614,-3426,-88,122858,0
30.036402225494385,-230,-5978,-2258,122080,0
30.076387643814087,-4911,-5019,-6220,121508,0
30.116400003433228,-6416,-3792,-1619,120973,0
30.156400680541992,-4732,232,1727,120852,0
30.196417808532715,-2063,1289,3385,120408,0
30.236461400985718,-288,-500,2506,121662,0
30.27558708190918,2055,-482,3007,127171,0
30.31543231010437,2112,-955,2391,126611,0
30.355406045913696,2294,-1740,653,125893,0
30.395370483398438,3505,-2901,-244,125203,0
30.4353928565979,2765,-3694,-1708,124841,0
30.47537112236023,295,-4469,-2878,124806,0
30.515406131744385,-3609,-5577,-2742,124758,0
30.555445671081543,-6275,-3239,-2659,124256,0
30.59537386894226,-5464,-729,1603,123717,0
30.63571000099182,-2442,473,3102,123817,0
30.67535901069641,-424,-1101,3011,125588,0
30.714356422424316,1746,-179,4116,126464,0
30.754348278045654,1788,-663,2842,126162,0
30.794371604919434,2775,-1245,1734,125911,0
30.83459734916687,4448,-2380,1128,125026,0
30.874361753463745,1753,-4116,-941,124442,0
30.914413452148438,-1242,-4940,-2875,124089,0
30.95443868637085,-4715,-2636,-5133,123365,0
30.99439239501953,-5537,-2765,-1795,123002,0
31.034374237060547,-3291,332,2717,122472,0
31.074390649795532,-2802,1034,2696,122672,0
31.1143696308136,815,-335,3596,126025,0
31.153336763381958,2163,87,3519,126066,0
31.193390607833862,3755,-1611,2001,124596,0
31.233722686767578,2363,-2579,-592,122988,0
31.273355722427368,-619,-2760,-4249,122973,0
31.313392877578735,-3452,-1216,-2821,123103,0
31.35334873199463,-3422,-221,-14,122965,0
31.393373012542725,-1858,1500,2577,122837,0
31.43336319923401,-831,1457,1850,122845,0
31.4733726978302,-144,1357,1454,122741,0
31.51337766647339,157,1526,1194,122702,0
31.553332090377808,594,1628,1254,122633,0
31.59239888191223,804,1917,1461,122740,0
31.63289761543274,930,2776,1879,122920,0
31.672356367111206,1955,2470,1460,122798,0
31.71234917640686,1427,2121,1130,122497,0
31.75237250328064,1179,2351,1620,122835,0
31.792375564575195,1040,1510,2613,123505,0
31.832409143447876,2851,-1007,2225,123798,0
31.872363328933716,3035,-1735,846,123413,0
31.912389993667603,1732,-386,12,123585,0
31.952385425567627,1057,-481,-495,123606,0
31.99238657951355,468,-976,-1465,123519,0
32.03200650215149,-360,-1731,-2149,123648,0
32.07143020629883,-3202,-2359,-1392,123559,0
32.111605644226074,-3014,-2175,-2186,123283,0
32.15138363838196,-4071,-2998,-1923,122914,0
32.19151043891907,-5392,-3058,-1230,122552,0
32.23153567314148,-3773,-1829,-487,122776,0
32.2714478969574,-2786,-1512,-5,122781,0
32.311521768569946,-3330,-1038,1549,122356,0
32.351380586624146,-1723,-717,3056,122830,0
32.39140176773071,-1186,1983,4881,124508,0
32.43139672279358,-842,-227,3253,125039,0
32.47038531303406,-2,-1023,2329,125045,0
32.51042318344116,242,-3947,610,123400,0
32.550384521484375,-823,-3653,-2390,122656,0
32.590455770492554,-2450,-1595,-3227,122638,0
32.63039803504944,-3273,-1515,-3269,122757,0
32.670379638671875,-1785,-917,-2345,123378,0
32.71039414405823,-2155,-1075,-786,123726,0
32.75041365623474,-2713,-747,-1869,123619,0
32.79043221473694,-2355,-1304,-2175,123947,0
32.83042645454407,-2162,-1482,-1782,124228,0
32.87079882621765,-1902,-1438,-1092,124273,0
32.90939474105835,-1485,-799,-880,123886,0
32.94944381713867,-847,-476,-838,123472,0
32.98940086364746,241,-144,-764,123345,0
33.02939057350159,668,94,116,123563,0
33.06934404373169,339,317,876,123645,0
33.109375,1012,-614,2010,123819,0
33.14940166473389,3612,-792,3631,124431,0
33.18944787979126,2758,-614,2977,124685,0
33.22940516471863,3168,-211,4201,124783,0
33.27037167549133,1904,-1477,2548,124406,0
33.309372901916504,853,-2084,654,124275,0
33.34838104248047,2599,-2651,-465,124228,0
33.38839340209961,2360,-4828,-2066,123989,0
33.428388357162476,1990,-3488,-5727,123356,0
33.46863603591919,424,-2966,-4193,123715,0
33.50840425491333,-2695,-6106,456,123803,0
33.54841423034668,-4817,-4479,1336,123502,0
33.5883948802948,-5778,-1073,3020,123331,0
33.62839698791504,-4567,46,4651,123431,0
33.66847252845764,-2189,-151,4287,123200,0
33.708425998687744,-414,-1891,2283,123295,0
33.798797369003296,-357,-1456,1337,123084,0
33.79953122138977,-188,-1434,901,123123,0
33.828171491622925,601,-1259,1929,123515,0
33.86750340461731,1788,-2176,2009,123701,0
33.907386302948,3391,-2650,2891,124100,0
33.94739747047424,4973,-3457,3041,125189,0
33.98739004135132,4536,-4853,2244,125175,0
34.027398347854614,1444,-5952,-150,124192,0
34.06747078895569,-747,-5373,-2393,123479,0
34.10740661621094,-1256,-4034,-2866,123584,0
34.14746594429016,-2285,-2654,-2200,123553,0
34.186546325683594,-1071,-1839,-2296,123489,0
34.22641658782959,-1872,-2144,-1282,123221,0
34.26665449142456,-3597,-1360,-379,122703,0
34.306437253952026,-2521,-1633,159,122593,0
34.34652662277222,-3101,-141,1622,122621,0
34.386401653289795,-3466,-1339,60,122806,0
34.42641735076904,-3389,-1978,748,122869,0
34.466411113739014,-3382,-2429,1457,122756,0
34.50658869743347,-2241,-2126,2446,123398,0
34.546473264694214,-801,-4628,1475,123754,0
34.586524963378906,-88,-4943,-415,123953,0
34.6254243850708,342,-3253,817,124010,0
34.66540217399597,1802,-4081,2513,124211,0
34.70578145980835,-1035,-10911,4149,123588,0
34.74542593955994,-6117,-5622,874,120292,0
34.78542613983154,-2873,3228,-1965,118108,0
34.8254759311676,1568,1210,2870,118412,0
34.865440130233765,68,953,-1268,119568,0
34.90554451942444,1082,1507,487,120090,0
34.945390939712524,1296,1694,570,120102,0
34.98535203933716,950,2412,1346,120029,0
35.02442121505737,778,1832,1496,120253,0
35.06443762779236,1819,1839,1963,120178,0
35.104477882385254,3402,340,987,119835,0
35.14438533782959,2002,-125,-510,119693,0
35.18438363075256,776,-357,-196,119726,0
35.2244234085083,332,-1590,-1649,119744,0
35.26439833641052,171,-2915,-2562,119671,0
35.30441927909851,483,-5044,-4275,119105,0
35.34442186355591,566,-4967,-5056,118110,0
35.38447117805481,732,-3426,-3182,117712,0
35.42444038391113,-104,-2596,-1865,117143,0
35.46348524093628,298,-1488,-779,116916,0
35.503437519073486,-170,-1162,-405,116794,0
35.54340434074402,-2232,-730,418,117012,0
35.583510398864746,-3190,-1065,1810,117073,0
35.623440980911255,-3418,-2081,1626,116589,0
35.663474798202515,-3766,-2050,1754,117016,0
35.70344352722168,-3355,-1548,1809,117802,0
35.74347138404846,-2286,-2200,539,118024,0
35.78345251083374,-2161,-2781,1343,118482,0
35.8234167098999,-557,-2953,2575,122111,0
35.86343860626221,-430,-3862,2309,124676,0
35.90240740776062,315,-4429,1366,125432,0
35.94241786003113,653,-7282,2395,125109,0
35.9824652671814,-5636,-10720,5919,124857,0
36.02241039276123,-3233,-7706,815,120660,0
36.06245493888855,-1820,2080,-3521,119374,0
36.102853775024414,-337,558,-745,120507,0
36.14241099357605,817,766,-1932,121336,0
36.18254637718201,313,1117,-1481,121679,0
36.22244167327881,150,1758,-884,121705,0
36.26240849494934,777,1543,-703,121464,0
36.302863121032715,1131,1104,-303,121305,0
36.34247040748596,1252,261,-664,121209,0
36.38143873214722,756,-605,-1654,121171,0
36.421441316604614,471,-1921,-2266,121069,0
36.46144437789917,-535,-3637,-3879,120708,0
36.5018036365509,-1059,-4896,-4398,120349,0
36.54156160354614,-1657,-4488,-4144,119754,0
36.581552267074585,-1256,-3539,-3816,119381,0
36.6214394569397,-1433,-2750,-1901,119091,0
36.661423444747925,-801,-1305,-1501,119167,0
36.70171046257019,-2203,-1930,-970,119111,0
36.74147605895996,-3170,-1486,81,118859,0
36.781413316726685,-3512,-1447,840,118885,0
36.820430278778076,-4541,-70,1696,119074,0
36.860469341278076,-3425,-2018,-590,119522,0
36.900639057159424,-2103,-1984,-431,119839,0
36.940465211868286,-1541,-2058,230,120248,0
36.98046684265137,-707,-2865,1034,120046,0
37.02042293548584,-455,-5690,1172,121062,0
37.06045389175415,553,-8425,2345,123359,0
37.10045266151428,-186,-7527,2835,125296,0
37.1403968334198,85,-7441,2940,125471,0
37.180495262145996,-243,-7871,2552,124018,0
37.220431327819824,-966,-1478,-52,123240,0
37.26038098335266,-1785,136,-2141,123393,0
37.29970145225525,-1021,199,-1860,123865,0
37.33943438529968,-431,420,-2361,124234,0
37.37940859794617,231,325,-1691,124568,0
37.41941428184509,317,471,-1832,124804,0
37.45962047576904,535,642,-1407,124978,0
37.50002932548523,823,579,-1425,125053,0
37.539414405822754,882,530,-1379,125151,0
37.57993793487549,1022,345,-1247,125158,0
37.61941123008728,978,-21,-1740,125273,0
37.65942931175232,1292,-290,-1762,125311,0
37.69943118095398,984,-1547,-2006,125201,0
37.73845148086548,-63,-3471,-3502,124744,0
37.77844953536987,-1015,-4948,-5446,124378,0
37.818440437316895,-2820,-5166,-4695,124069,0
37.85845422744751,-3648,-4816,-1685,123757,0
37.89846158027649,-3354,-2340,-1234,123639,0
37.93844699859619,-1919,-1956,-797,123496,0
37.979201316833496,-2269,-2458,342,123325,0
38.01853322982788,-1707,-3591,1942,124133,0
38.05853009223938,-2835,-1147,5036,124619,0
38.09848141670227,-1905,-4338,3050,124894,0
38.13850235939026,-1099,-9613,-367,125202,0
38.178518772125244,-1829,-10798,2687,124910,0
38.21747660636902,-1081,-9161,3853,125288,0
38.257487773895264,-2102,-5846,3242,125654,0
38.29743242263794,2878,-8053,2983,126532,0
38.33751726150513,-3644,-5569,953,126773,0
38.3774790763855,-133,-2291,-6214,126970,0
38.41743564605713,-564,-493,-2631,126610,0
38.45739126205444,52,40,-1115,126600,0
38.49741530418396,1123,111,-1375,126628,0
38.53750014305115,1055,268,-870,126713,0
38.577412366867065,1557,-75,-653,126774,0
38.61745882034302,1129,-566,-487,126782,0
38.656450271606445,860,-785,-1213,126813,0
38.69641447067261,528,-853,-1009,126749,0
38.7369167804718,598,-1033,-1530,126728,0
38.776472330093384,1032,-1554,-1879,126752,0
38.816442012786865,1071,-2011,-2106,126738,0
38.85649347305298,761,-3141,-2106,126589,0
38.89642524719238,766,-4519,-3125,126377,0
38.93700456619263,1015,-5308,-3758,126113,0
38.97644114494324,876,-4200,-3580,125952,0
39.01649498939514,-298,-3989,-1717,126058,0
39.056488275527954,-1980,-3201,-1010,126000,0
39.09649920463562,-2764,-2831,-335,125497,0
39.13556098937988,-3916,-3437,341,125071,0
39.17544198036194,-4581,-2337,1985,124303,0
39.215519428253174,-4718,-1667,3399,123628,0
39.25552177429199,-3696,-2953,6044,123156,0
39.29549860954285,-3736,-3509,5770,122968,0
39.33565378189087,-2941,-3846,5014,122546,0
39.375460147857666,-2867,-3816,3718,122102,0
39.415483474731445,-2331,-3777,2472,121966,0
39.45545220375061,-876,-2884,704,122678,0
39.49545097351074,-891,-1713,-187,123092,0
39.53544497489929,-464,-1222,-1216,123634,0
39.57443046569824,68,-654,-2200,124289,0
39.61449718475342,955,-1111,-2638,124672,0
39.65444016456604,717,-1246,-2215,124710,0
39.694496631622314,631,-2093,-2768,124312,0
39.734476804733276,552,-3611,-4109,123900,0
39.77445840835571,-227,-4418,-3778,123938,0
39.814462661743164,-1319,-3192,-1046,123957,0
39.854461908340454,-1965,-2578,854,123629,0
39.89448642730713,-2628,-2144,319,123240,0
39.934555768966675,-4513,-3486,638,123008,0
39.974459648132324,-5264,-3645,1712,122697,0
40.01449656486511,-4713,-3443,2580,122666,0
40.05346727371216,-2837,-2979,3261,122939,0
40.09345746040344,-2115,-2107,2928,122701,0
40.13345813751221,-1815,-1551,1634,122578,0
40.17348027229309,-1792,-2263,1994,122964,0
40.21346187591553,-1535,-3016,1027,123700,0
40.253461599349976,-1734,-3660,1637,124214,0
40.29346466064453,-1558,-3957,1273,124140,0
40.333446741104126,-2245,-4688,191,123998,0
40.37347102165222,-1819,-4653,212,124183,0
40.41346049308777,-1357,-5220,551,124646,0
40.45354437828064,-1439,-4799,850,124931,0
40.492462158203125,-1724,-2201,584,124722,0
40.532471895217896,-1328,-660,-26,124163,0
40.5724937915802,-413,-276,-135,123807,0
40.61249351501465,1473,-561,-397,123997,0
40.65245962142944,1340,-3223,500,124216,0
40.69244885444641,2317,-5050,563,124366,0
40.73254442214966,2506,-4915,-2329,124990,0
40.77252149581909,1325,-3592,-3784,126057,0
40.8124418258667,210,-3067,182,125993,0
40.85244941711426,-607,-1502,19,125168,0
40.89243221282959,122,-1554,640,124311,0
40.93155646324158,-476,-1241,907,124068,0
40.97150135040283,-679,-984,2888,123881,0
41.01150631904602,-870,-311,2643,123563,0
41.05145621299744,-848,-374,3361,122944,0
41.091487646102905,-1387,-365,2673,122587,0
41.131507396698,-1034,-814,1939,122390,0
41.1723313331604,-2577,-674,4128,121926,0
41.21149253845215,-2429,-678,2402,121873,0
41.25149750709534,-2745,-1354,2972,121913,0
41.291518211364746,-2677,-1916,3221,122012,0
41.331512689590454,-3772,-3285,3671,121598,0
41.37111520767212,-4440,-2655,6111,121413,0
41.41046094894409,-4463,-2723,3786,121573,0
41.4504771232605,-5094,-4180,4297,122955,0
41.4905002117157,-4052,-3657,4484,124264,0
41.53050398826599,-3030,-4144,2865,122602,0
41.5711555480957,-2002,-5692,-705,121504,0
41.61051893234253,-1801,-5469,-1131,121215,0
41.65048265457153,-1526,-5561,-1602,121117,0
41.69049096107483,-1455,-5136,-1678,121465,0
41.730507135391235,-729,-5013,-2312,122013,0
41.77138638496399,-137,-3874,-1989,122222,0
41.81045722961426,388,-3246,-1460,122293,0
41.849470138549805,274,-1978,-1155,122357,0
41.88956379890442,505,-1207,-739,122415,0
41.92945671081543,31,48,-819,122509,0
41.969841718673706,770,1068,-553,122786,0
42.00951957702637,2019,1898,1218,123321,0
42.04945421218872,2637,2147,600,123648,0
42.089465379714966,2050,1815,-142,123940,0
42.12952494621277,2406,-708,-385,124399,0
42.16992998123169,506,-4276,-324,124304,0
42.209577798843384,1058,-3613,-2203,123958,0
42.25012540817261,806,-1877,-3989,123820,0
42.28852653503418,-146,-1369,-1125,123661,0
42.328535318374634,-11,-831,946,123241,0
42.36888813972473,-58,9,41,123200,0
42.40848660469055,153,203,889,123114,0
42.4484748840332,-906,587,1738,122832,0
42.488508224487305,-1226,766,2394,122863,0
42.52852463722229,-1722,-838,3798,122844,0
42.56864356994629,-2485,-2244,4390,122673,0
42.60851335525513,-5515,-7259,4490,121865,0
42.64861345291138,-6191,-7635,4648,122124,0
42.688520669937134,-5475,-6137,3355,123526,0
42.72851300239563,-4799,-4033,3166,123957,0
42.7676215171814,-4603,-4219,3335,123314,0
42.80753684043884,-4322,-3709,3287,122445,0
42.84748315811157,-3718,-4057,1831,120935,0
42.88749170303345,-3451,-5117,316,120074,0
42.9274959564209,-3600,-7213,186,119858,0
42.96753191947937,-3415,-6009,-1440,119827,0
43.00753378868103,-4139,-4886,-374,119713,0
43.04749059677124,-2998,-4841,-243,119802,0
43.087554931640625,-2201,-3848,-151,119985,0
43.12747383117676,-1763,-3226,101,120236,0
43.167439222335815,-2070,-3778,847,120947,0
43.206600189208984,-1632,-4301,1499,121677,0
43.24672079086304,-811,-4152,1569,122270,0
43.28648924827576,-454,-3728,2096,123254,0
43.32646703720093,156,-2838,4067,125230,0
43.36648416519165,1251,-2806,4551,126120,0
43.406490087509155,2035,-3116,4694,125716,0
43.44651985168457,1324,-4150,1210,124885,0
43.48652124404907,756,-3402,-1373,124756,0
43.52651643753052,1096,-2355,-4691,124864,0
43.566487312316895,254,-3691,-2828,124438,0
43.60731601715088,-2304,-3771,461,122660,0
43.646605014801025,-4485,-6750,4464,121738,0
43.685484886169434,-5210,-3298,7521,121283,0
43.725494384765625,-3502,-427,5303,123420,0
43.80201554298401,-2258,-2617,8807,126499,0
43.805477142333984,-949,-2695,4907,125801,0
43.84547209739685,8,-2259,1021,125037,0
43.88552737236023,398,-1534,1103,125366,0
43.92552733421326,1142,-1536,2448,126525,0
43.96547555923462,3092,-1387,3794,127296,0
44.00567817687988,2839,-1545,4612,126949,0
44.04550886154175,-1497,-6694,140,125235,0
44.08551096916199,-4946,-6065,-2180,124401,0
44.12449932098389,-9206,-2421,-100,123155,0
44.16467070579529,-5518,71,1625,122169,0
44.20473122596741,-2987,501,3153,122259,0
44.24447536468506,-1274,1837,2728,123074,0
44.284483194351196,1681,-1157,3627,123306,0
44.324724435806274,-792,192,1044,123418,0
44.36447358131409,870,-634,-1064,123416,0
44.40448307991028,1336,-59,-3145,123289,0
44.4445481300354,-88,-462,-1972,123142,0
44.48447251319885,-854,-2058,688,122932,0
44.524482011795044,-840,-2231,5987,122373,0
44.56449031829834,1277,-611,3959,122604,0
44.60352611541748,2498,-450,5753,122617,0
44.64350509643555,845,-680,3188,122879,0
44.68351364135742,418,-1629,1986,122995,0
44.723472118377686,278,-2388,1561,122705,0
44.76348352432251,800,-2788,480,122340,0
44.80353236198425,-344,-2980,1048,122145,0
44.84351444244385,-542,-2716,1989,122484,0
44.883487939834595,-591,-1938,2844,123080,0
44.92351031303406,-419,-2376,2787,122731,0
44.96351647377014,-479,-2867,1176,122879,0
45.00367522239685,-458,-3353,2173,123401,0
45.04251575469971,-506,-3189,2106,123673,0
45.08252239227295,-516,-2912,1911,123671,0
45.12249422073364,-50,-2415,2105,124280,0
45.16251587867737,850,-1337,3999,125875,0
45.20250701904297,1793,-1452,3439,126102,0
45.24252223968506,1389,-2659,2906,126284,0
45.28253960609436,-2641,-8735,-283,125071,0
45.322556257247925,-6086,-4485,-2740,124951,0
45.36256170272827,-10212,3414,-935,124772,0
45.4025514125824,-5703,-2064,-213,124081,0
45.44252371788025,-2795,-1435,778,124191,0
45.48254156112671,1096,-931,-249,124144,0
45.52152156829834,3206,-1859,-862,124017,0
45.56153225898743,5840,-1054,-2105,123729,0
45.60150671005249,2281,-2346,-438,123402,0
45.64156651496887,-2480,-3274,-3351,123135,0
45.681562423706055,-7625,1501,-528,124063,0
45.72156500816345,-3024,-1051,6898,123409,0
45.76155877113342,1898,-1761,1074,123663,0
45.80151581764221,3669,-609,262,123225,0
45.84150409698486,2046,836,97,123015,0
45.881529331207275,1249,1265,1037,123294,0
45.92147612571716,949,1328,2598,123710,0
45.96047115325928,2633,407,3438,123952,0
46.00051021575928,3757,-396,1847,123840,0
46.0405068397522,3599,-499,1106,123523,0
46.08051156997681,2604,-979,128,122882,0
46.12055468559265,1357,-1371,-907,122671,0
46.16049861907959,309,-2417,-2294,122705,0
46.20052623748779,-186,-4191,-4354,122656,0
46.24095129966736,-2483,-4686,-4436,122539,0
46.28053617477417,-4082,-4434,309,121907,0
46.32052946090698,-2173,-904,-323,121582,0
46.3605318069458,-1688,-1160,820,121678,0
46.399519205093384,-3568,-1085,1870,122366,0
46.43958568572998,-3755,-938,4771,123740,0
46.47956895828247,-2190,-2762,2650,123065,0
46.519548654556274,-1335,-2270,2250,124582,0
46.559518575668335,-284,-1397,4328,127293,0
46.599536657333374,695,-354,3876,127563,0
46.639615535736084,1811,-1891,2962,127140,0
46.67955803871155,-1247,-5195,-217,125507,0
46.719542503356934,-970,-3522,-3966,124077,0
46.75951957702637,-3700,-10,-4789,123983,0
46.79949450492859,-4621,243,-630,124414,0
46.8386812210083,-2134,362,4490,124516,0
46.87849545478821,-1072,633,2239,124649,0
46.91853070259094,1459,-1358,105,125421,0
46.95858097076416,2444,-1091,-1815,125979,0
46.99851632118225,2565,-1287,-3110,126275,0
47.03932452201843,544,-2333,-1847,126372,0
47.07860565185547,-175,-3985,-2647,125470,0
47.11853575706482,-2095,-6000,-4396,124641,0
47.15857410430908,-5317,-7780,-2126,124473,0
47.198643922805786,-7095,-3104,257,123696,0
47.23869228363037,-3989,-865,-2203,123459,0
47.27756690979004,-4935,-1205,2068,124277,0
47.317538261413574,-3215,-122,4472,126352,0
47.357542753219604,-526,448,5580,127387,0
47.397552728652954,2597,-1821,4637,127641,0
47.43813347816467,761,-4373,476,124604,0
47.47761678695679,-503,-4400,-6041,124106,0
47.5177001953125,-6070,-2439,-2452,123961,0
47.55760359764099,-3561,-2479,1647,123805,0
47.59759259223938,-558,-830,3910,126832,0
47.63750624656677,-573,424,6716,128196,0
47.67761564254761,560,-1828,5751,129243,0
47.716628551483154,1443,-4727,4286,128445,0
47.756526708602905,1247,-3610,466,128309,0
47.79659986495972,652,-4846,-1515,128639,0
47.83658695220947,1246,-4091,-10046,127143,0
47.87663817405701,-1659,-5510,-2997,126125,0
47.91664910316467,-6243,-9546,1883,125325,0
47.9565749168396,-7711,-878,5620,125439,0
47.99657416343689,-5813,250,6050,125982,0
48.03654742240906,-1702,-1260,5506,127245,0
48.0765483379364,-417,-1448,3662,126633,0
48.116539478302,1495,-1665,2617,126692,0
48.15553283691406,4868,-3102,2963,126130,0
48.19554376602173,2854,-4736,-576,125496,0
48.235660552978516,454,-4108,-4848,125402,0
48.27558636665344,-3661,-6439,-1987,125518,0
48.31557536125183,-6431,-2271,4783,126454,0
48.35552501678467,-3346,887,5600,126346,0
48.39557600021362,-557,-1008,5546,128625,0
48.43552255630493,127,-1780,3983,129072,0
48.47573661804199,1997,-2401,2473,129359,0
48.5155291557312,3305,-3720,1205,128018,0
48.55460715293884,1799,-4866,-1870,126747,0
48.594555139541626,-580,-4707,-5163,126384,0
48.63452172279358,-5069,-8162,638,126332,0
48.6745719909668,-6015,-2620,4247,126487,0
48.71465754508972,-4382,-209,4304,127512,0
48.75461673736572,-3758,-766,6750,128770,0
48.79456377029419,-1731,-2237,4195,128379,0
48.834502935409546,527,-1639,3083,128006,0
48.87472677230835,3241,-2697,3391,127705,0
48.91455578804016,1221,-6476,-1644,126764,0
48.95461058616638,-3479,-4754,-4600,126951,0
48.993550062179565,-7586,-1793,2202,127548,0
49.033535957336426,-6474,739,5487,129293,0
49.07354164123535,1158,62,9834,131612,0
49.11357498168945,1798,-2122,5379,129678,0
49.15363645553589,-169,-5254,-457,127463,0
49.19364619255066,-304,-4867,-5312,126725,0
49.23357129096985,-3896,-3736,-5289,125817,0
49.273977279663086,-6140,-4441,455,125800,0
49.31373572349548,-6110,-443,3541,127915,0
49.353569746017456,-1100,138,9761,128095,0
49.393742084503174,898,-946,4641,128083,0
49.43260359764099,992,-4329,679,127356,0
49.473026275634766,74,-5435,-6349,125277,0
49.512611389160156,-4641,-2914,-5053,123888,0
49.552584171295166,-7926,314,1991,123909,0
49.59259390830994,-4991,1868,3169,124350,0
49.63253211975098,2466,550,4456,124522,0
49.67260813713074,1272,-3167,531,122889,0
49.713239669799805,-2097,-3103,-5592,122510,0
49.7525680065155,-4763,-2744,-735,123163,0
49.792556285858154,-6656,-476,2717,124127,0
49.83258366584778,-2745,-948,6367,125415,0
49.872015953063965,1511,-138,6401,123845,0
49.91155433654785,2547,-2886,1774,122072,0
49.951589822769165,-1920,-3734,-9197,122176,0
49.9915771484375,-5949,-1644,1374,123979,0
50.03173518180847,-4885,-202,4622,125164,0
50.07160425186157,-419,-265,8108,125600,0
50.11151885986328,242,-899,3675,123876,0
50.151615619659424,2439,-2739,669,122529,0
50.19164824485779,973,-2717,-4737,124757,0
50.23153257369995,-2329,-3610,-3732,125895,0
50.27155327796936,-5542,-3027,1372,126400,0
50.31063771247864,-5130,-671,5230,126483,0
50.35062575340271,-3512,-353,4172,125859,0
50.39120674133301,-2182,-781,3401,125977,0
50.43055272102356,-663,-548,1783,125847,0
50.47055745124817,581,213,2096,126076,0
50.510579347610474,2689,-672,1341,126339,0
50.55053472518921,2928,-2037,-283,126580,0
50.59062218666077,1576,-2486,-2029,126922,0
50.630558252334595,-115,-2941,-6376,126695,0
50.67055892944336,-5669,-7857,-1932,126411,0
50.70955681800842,-8919,-3475,3976,127065,0
50.74960374832153,-6032,-292,6714,127180,0
50.789568185806274,-3326,-2236,4168,128321,0
50.82957196235657,-738,-1244,4200,128917,0
50.86959981918335,1499,-2458,2590,128839,0
50.909550189971924,4338,-3372,2372,127725,0
50.949618339538574,981,-3689,-914,127255,0
50.98960876464844,-1673,-5259,-3000,127010,0
51.02961254119873,-5700,-4120,-4895,126327,0
51.0697238445282,-6646,-2064,-1083,125929,0
51.10954761505127,-5194,620,1690,126493,0
51.14857792854309,-3129,265,3459,126846,0
51.18854737281799,333,-1892,3375,126556,0
51.2288134098053,3440,-1765,5532,127019,0
51.268572092056274,1946,-2809,1421,126956,0
51.308552742004395,1204,-4569,-932,126380,0
51.34855532646179,439,-4522,-4102,126026,0
51.38857674598694,-2529,-7641,-6487,125744,0
51.42857527732849,-9775,-10012,883,125279,0
51.46868848800659,-9509,-1182,-390,125090,0
51.508689880371094,-9185,1179,3040,125682,0
51.5485622882843,-4059,508,3150,125453,0
51.587618827819824,-908,-2260,871,125270,0
51.627572774887085,1965,-2627,513,125753,0
51.667564868927,2044,-2726,-856,125964,0
51.707600355148315,1017,-3659,-3897,125696,0
51.74762272834778,1680,-3603,-7562,125097,0
51.787622690200806,-1762,-7594,-1089,125072,0
51.827584743499756,-8512,-10551,3486,125016,0
51.86757206916809,-8703,228,5526,124363,0
51.90797162055969,-5473,1402,4432,124620,0
51.947589635849,-1679,487,4089,124661,0
51.98759889602661,3981,-1562,3025,125165,0
52.026575565338135,2800,-361,795,124893,0
52.066569805145264,1898,-3378,-2333,124608,0
52.10663819313049,-2534,-6552,415,125329,0
52.14663052558899,-3759,-3285,3946,125141,0
52.18654489517212,-3277,-79,3292,125593,0
52.22661995887756,-2413,-643,2799,127253,0
52.26664447784424,-1359,-2726,1569,126982,0
52.30660843849182,-1380,-5099,123,126552,0
52.34656524658203,-1692,-4221,1827,127155,0
52.386698961257935,-1960,-3003,4536,127063,0
52.42662835121155,-1330,-2376,3556,127210,0
52.46553325653076,-1464,-1538,2539,127302,0
52.50596332550049,-750,-1856,1476,125633,0
52.54554271697998,-247,-513,534,124175,0
52.58624315261841,-40,658,-237,124300,0
52.62558627128601,698,996,-862,124701,0
52.66556191444397,1266,-448,-1238,124819,0
52.70608425140381,1423,318,-2946,125062,0
52.745577573776245,1987,306,-3809,125245,0
52.785582304000854,2593,280,-3763,125582,0
52.82556366920471,2086,-5,-2627,125672,0
52.864574670791626,1968,467,-2927,125816,0
52.905269145965576,1216,626,-2308,126026,0
52.944562911987305,713,903,-1333,125928,0
52.984556436538696,888,404,-345,125618,0
53.024576902389526,1429,-163,519,125054,0
53.064637184143066,1945,-2994,-1184,124908,0
53.10473036766052,750,-7002,-418,124838,0
53.1445574760437,-390,-7005,3070,127412,0
53.18460297584534,-2250,-3872,6291,128304,0
53.22458338737488,-3617,-581,3567,128011,0
53.26462006568909,-3425,-4326,3072,127985,0
53.303919076919556,-1979,-3723,5636,128161,0
53.34355688095093,824,-2423,4408,128269,0
53.38356924057007,-89,-4565,1248,127705,0
53.42356300354004,-2842,19,-1891,126608,0
53.46359062194824,-1648,-713,-610,126313,0
53.503597259521484,-1737,-2403,803,127440,0
53.54359149932861,-3637,-1090,4152,128320,0
53.58360409736633,-2836,-2415,5212,128092,0
53.623576402664185,-1369,-4203,4502,127433,0
53.66357207298279,1376,-2927,2814,125202,0
53.703632831573486,-1603,-1053,-904,125207,0
53.742565393447876,-1330,1032,-689,125186,0
53.782634973526,-1454,819,629,124705,0
53.822609663009644,-2632,803,2524,124696,0
53.86276149749756,-2392,772,3239,125632,0
53.902689933776855,-1220,505,5098,125825,0
53.94268560409546,928,-362,4471,125359,0
53.98255920410156,1352,-104,3623,125506,0
54.022581815719604,1055,-1273,1342,125847,0
54.110119104385376,709,-664,-475,126581,0
54.117125272750854,607,-897,-1264,127134,0
54.14159631729126,972,-972,-3058,126972,0
54.18164539337158,1113,-1105,-5065,126641,0
54.22164750099182,-1191,-2519,-3170,126598,0
54.26159119606018,-3233,-3196,-2229,126156,0
54.30158495903015,-4628,-2970,-1159,125933,0
54.341599225997925,-5400,234,1141,126101,0
54.38178110122681,-3531,-90,2728,125901,0
54.42162108421326,-2121,6,3019,127217,0
54.461628675460815,-1248,-1082,3719,128457,0
54.501615047454834,-191,-1065,2845,128507,0
54.54203152656555,489,-1160,2433,129010,0
54.58060932159424,2165,-938,3033,129400,0
54.62061405181885,3174,-347,3149,129302,0
54.660605669021606,3484,-241,2355,129037,0
54.70059776306152,3426,-196,1451,128563,0
54.74133825302124,2688,-184,285,128521,0
54.7806396484375,1728,-312,-452,128445,0
54.8206090927124,850,-491,-876,128279,0
54.86061954498291,279,-375,-1118,127876,0
54.900630235672,-645,-1487,628,127513,0
54.940988302230835,-1798,-3162,2741,126736,0
54.98063945770264,595,-4063,4450,126496,0
55.01963496208191,5847,-2029,4579,127483,0
55.05964422225952,-645,-1026,4928,127287,0
55.0996310710907,1120,-2556,2812,126488,0
55.14007353782654,5165,-3306,2184,126298,0
55.17963528633118,3701,-2538,-732,126246,0
55.219664096832275,1795,-1714,-2182,126356,0
55.25961136817932,-3097,-5801,-8,125224,0
55.29960560798645,-6683,-1960,3226,125631,0
55.340219497680664,-3454,-3306,4959,127551,0
55.379645586013794,-2041,-3794,3996,128652,0
55.419612646102905,-2608,-3631,4194,129268,0
55.458611726760864,-2404,-2601,3316,129726,0
55.49926400184631,-2044,-1562,2515,129803,0
55.538756370544434,-1239,-2094,2103,129957,0
55.5792019367218,2008,-2818,1233,130023,0
55.61859321594238,2616,-2420,-1240,129387,0
55.658607006073,1542,-1960,-3749,129163,0
55.69861102104187,146,-1402,-7241,129514,0
55.738619804382324,-2627,-3554,-1731,129918,0
55.77862286567688,-5614,-194,787,129478,0
55.81859087944031,-4594,2104,2569,129352,0
55.85759139060974,-2875,1335,2616,129142,0
55.89797258377075,4,-781,1067,128715,0
55.937599420547485,510,-1119,-532,129397,0
55.97764015197754,818,-1224,-1897,129902,0
56.01759696006775,2118,-859,-4407,129309,0
56.057610511779785,3273,-349,-4756,129216,0
56.09760880470276,1642,-886,-1387,129519,0
56.13757920265198,187,-1026,159,129796,0
56.17764735221863,-2075,1324,1667,129240,0
56.2176034450531,-2033,3009,1078,128231,0
56.256617307662964,278,1775,631,128269,0
56.296618938446045,1266,1673,1770,128716,0
56.33661961555481,2344,386,1586,128779,0
56.376646995544434,3528,-362,218,128928,0
56.416626930236816,3458,-182,-1454,129277,0
56.456565618515015,2451,81,-769,129694,0
56.49660921096802,2074,-147,-1393,129019,0
56.53667712211609,1018,-1678,-646,128763,0
56.576886892318726,-2098,-5486,1830,129768,0
56.616614818573,-4038,151,5132,130192,0
56.656636476516724,-1496,445,5178,128524,0
56.69561958312988,-650,-2597,1657,128342,0
56.73560833930969,-1759,-2147,1301,128571,0
56.77566885948181,-2097,-1734,2693,128514,0
56.8157160282135,-1541,-2835,2268,128453,0
56.85568118095398,-576,-3917,2296,128351,0
56.895647048950195,-141,-3415,2531,128521,0
56.93568801879883,-371,-3895,3237,129204,0
56.975603342056274,-646,-1740,3333,130777,0
57.01566553115845,-1071,-563,1231,131117,0
57.05565571784973,-585,-810,1263,130870,0
57.09463572502136,1796,-1955,2970,130267,0
57.13465094566345,2187,-1530,2434,130182,0
57.17466115951538,4273,-2149,2738,129466,0
57.21476674079895,4142,-3212,503,128446,0
57.25466442108154,2139,-3811,-1200,128187,0
57.29461669921875,-631,-5426,-1008,128439,0
57.33465337753296,-2906,-4910,629,129276,0
57.3746612071991,-7710,-1870,4029,128251,0
57.41461658477783,-7468,4643,2942,127356,0
57.454654932022095,-4501,3466,4243,127340,0
57.49461770057678,-1316,804,1832,127305,0
57.53359127044678,-1,-666,-48,127139,0
57.57363533973694,2264,-2208,-3051,127170,0
57.613625049591064,2142,-2816,-1774,127048,0
57.6536340713501,-2894,-7806,1328,127206,0
57.69365882873535,-6700,-5108,1031,127004,0
57.733670473098755,-3064,-5216,3912,127522,0
57.77383303642273,-1932,-1427,4988,112527,0
57.813655376434326,-3865,-2399,3659,116445,0
57.85364484786987,-4335,-4443,1847,117077,0
57.893630027770996,-4063,-3930,3787,117562,0
57.9336621761322,-1754,-2617,3062,116784,0
57.97269320487976,696,-1621,3032,116717,0
58.01259160041809,179,-2779,24,116767,0
58.052937507629395,-1336,-4219,-2232,116869,0
58.092636823654175,-1881,-2037,-6324,117390,0
58.13266849517822,-2948,-2214,-3833,117089,0
58.17300724983215,-3340,-1507,415,116953,0
58.212645530700684,-2292,522,538,116968,0
58.25262665748596,-1918,731,-357,117085,0
58.29264283180237,-174,60,-285,117082,0
58.33261680603027,632,-252,-1153,117101,0
58.372679233551025,1793,-596,-1922,117019,0
58.41168212890625,2954,-433,-2990,117226,0
58.45162010192871,2639,-295,-3319,117677,0
58.49160027503967,1560,-539,-2656,119007,0
58.53162455558777,1463,-594,-3842,121549,0
58.571674823760986,1678,-798,-3899,123124,0
58.61275553703308,1458,-1712,-2203,124090,0
58.651686906814575,-1131,-2768,-1035,125283,0
58.691657066345215,-2421,-2801,930,126058,0
58.73164939880371,-3388,-3428,4387,126624,0
58.771660566329956,-3646,-4921,6198,127243,0
58.81065320968628,-3559,-3538,6392,127540,0
58.8506965637207,-2700,-1511,3540,127116,0
58.890868186950684,-1422,-1258,1906,125981,0
58.930620431900024,3392,-1868,2773,125184,0
58.97066330909729,3948,-2191,-1323,125159,0
59.01061654090881,590,-1277,-4385,125312,0
59.05068039894104,-2318,-3648,-492,126794,0
59.09067440032959,-4940,-2707,1991,128938,0
59.1306517124176,-5447,-2469,7226,122290,0
59.17062330245972,-2884,-4072,6355,119678,0
59.210641622543335,-1569,-2790,2144,120053,0
59.249645948410034,-814,-1147,2304,120124,0
59.28977179527283,293,-464,3684,119916,0
59.32961058616638,842,384,3405,119663,0
59.36961627006531,697,-480,2601,119622,0
59.409634590148926,531,-1720,1815,119454,0
59.44968581199646,-609,-4881,859,119989,0
59.4896502494812,-4491,-8098,-874,121201,0
59.529666900634766,-2408,-345,6400,122769,0
59.56964564323425,-2649,286,6685,122134,0
59.609803915023804,-3492,355,1948,122460,0
59.649657249450684,-1734,-2646,1073,122388,0
59.68861770629883,-1335,-3257,1158,122373,0
59.72868776321411,-1185,-3469,1618,122472,0
59.768654584884644,-1359,-3282,2829,122912,0
59.80865740776062,-1866,-2759,4147,113522,0
59.848641872406006,-2223,-3642,6191,79418,0
59.88865876197815,-1322,-3580,3895,104600,0
59.92889356613159,-1361,-2481,1874,109550,0
59.96861696243286,874,-2333,580,111438,0
