Timestamp,AccX,AccY,AccZ,Heart_IR,Phase
0.028781414031982422,-510,-1878,658,118760,0
0.06881237030029297,-483,-1868,667,118730,0
0.10857462882995605,-500,-1909,657,118723,0
0.14865374565124512,-487,-1893,669,118739,0
0.1887187957763672,-474,-1887,664,118721,0
0.22874069213867188,-517,-1878,662,118724,0
0.2685885429382324,-542,-1830,665,118726,0
0.3087632656097412,-579,-1834,662,118782,0
0.3486301898956299,-571,-1843,697,118791,0
0.387556791305542,-638,-1827,718,118731,0
0.4276731014251709,-599,-1832,712,118463,0
0.46752095222473145,-555,-1832,747,118274,0
0.5075042247772217,-554,-1843,750,118209,0
0.547558069229126,-510,-1864,724,118213,0
0.5875246524810791,-449,-1867,676,118200,0
0.6275205612182617,-428,-1859,659,118190,0
0.667506217956543,-428,-1890,634,118148,0
0.7078514099121094,-482,-1858,658,118110,0
0.7476058006286621,-467,-1865,696,118075,0
0.7875361442565918,-504,-1852,711,118102,0
0.8268744945526123,-515,-1844,714,118129,0
0.8664934635162354,-503,-1841,692,118165,0
0.9069614410400391,-534,-1840,709,118188,0
0.9466254711151123,-499,-1871,727,118209,0
0.986595869064331,-501,-1865,710,118213,0
1.0265448093414307,-471,-1883,704,118235,0
1.0664570331573486,-435,-1886,691,118121,0
1.1070208549499512,-445,-1880,664,117853,0
1.1469519138336182,-445,-1878,684,117672,0
1.186659812927246,-440,-1881,697,117623,0
1.2265751361846924,-448,-1886,676,117637,0
1.2664005756378174,-413,-1860,645,117639,0
1.3055298328399658,-450,-1902,628,117669,0
1.345395803451538,-474,-1870,693,117642,0
1.3855395317077637,-500,-1849,716,117583,0
1.425457239151001,-522,-1858,699,117553,0
1.4654231071472168,-497,-1858,676,117541,0
1.5056142807006836,-488,-1873,664,117550,0
1.5453212261199951,-473,-1884,677,117572,0
1.5856809616088867,-479,-1869,700,117545,0
1.6256065368652344,-449,-1855,671,117552,0
1.6653220653533936,-479,-1865,663,117547,0
1.7055010795593262,-498,-1901,663,117496,0
1.7453069686889648,-448,-1870,639,117298,0
1.7844901084899902,-430,-1896,645,117050,0
1.824519395828247,-462,-1886,692,116895,0
1.8643474578857422,-501,-1865,708,116807,0
1.9045238494873047,-483,-1879,677,116753,0
1.9443531036376953,-476,-1908,688,116713,0
1.9845032691955566,-479,-1863,676,116651,0
2.0243072509765625,-461,-1867,707,116553,0
2.0645220279693604,-510,-1864,692,116442,0
2.105092763900757,-518,-1857,661,116409,0
2.1444125175476074,-493,-1876,679,116370,0
2.1843249797821045,-517,-1868,698,116388,0
2.2243800163269043,-511,-1866,715,116364,0
2.263333320617676,-475,-1885,697,116330,0
2.3033273220062256,-439,-1888,650,116325,0
2.3433306217193604,-419,-1918,625,116332,0
2.38338565826416,-433,-1921,626,116181,0
2.4233241081237793,-417,-1880,648,115908,0
2.4633007049560547,-481,-1872,682,115683,0
2.503321647644043,-544,-1858,706,115585,0
2.5433390140533447,-537,-1857,711,115512,0
2.5833516120910645,-524,-1844,714,115462,0
2.6233413219451904,-526,-1851,718,115429,0
2.663329601287842,-521,-1847,710,115354,0
2.703087329864502,-507,-1857,689,115291,0
2.742452621459961,-504,-1855,685,115260,0
2.782383680343628,-514,-1857,700,115235,0
2.8223836421966553,-501,-1851,704,115248,0
2.8623576164245605,-480,-1856,705,115263,0
2.9024078845977783,-516,-1858,708,115270,0
2.942378520965576,-491,-1876,694,115266,0
2.9824092388153076,-484,-1867,694,115279,0
3.022362470626831,-507,-1876,716,115240,0
3.062396287918091,-487,-1872,687,115057,0
3.102302074432373,-491,-1868,681,114852,0
3.142812728881836,-495,-1862,682,114818,0
3.1814239025115967,-515,-1865,695,114842,0
3.2213809490203857,-493,-1856,686,114854,0
3.261340618133545,-501,-1874,691,114867,0
3.3013715744018555,-500,-1848,690,114871,0
3.341364860534668,-498,-1869,709,114807,0
3.3813893795013428,-505,-1865,674,114769,0
3.4214236736297607,-505,-1898,656,114766,0
3.4613282680511475,-507,-1866,715,114746,0
3.501363754272461,-504,-1880,713,114723,0
3.5413904190063477,-505,-1867,685,114759,0
3.5813307762145996,-483,-1894,702,114784,0
3.6214799880981445,-484,-1870,692,114825,0
3.6603729724884033,-478,-1916,707,114820,0
3.7005927562713623,-466,-1873,671,114730,0
3.740718126296997,-436,-1867,664,114486,0
3.780365467071533,-461,-1857,704,114303,0
3.8203558921813965,-480,-1887,692,114223,0
3.8603427410125732,-484,-1879,719,114212,0
3.901439666748047,-426,-1902,750,114172,0
3.9411818981170654,-437,-1894,726,114159,0
3.9807868003845215,-446,-1866,717,114093,0
4.0203611850738525,-417,-1860,711,114049,0
4.060327768325806,-420,-1880,672,114052,0
4.100473403930664,-435,-1871,719,114094,0
4.139545917510986,-416,-1844,776,114102,0
4.180566310882568,-419,-1840,779,114181,0
4.222054958343506,-432,-1852,782,114249,0
4.259297132492065,-464,-1833,768,114312,0
4.299294948577881,-454,-1828,759,114363,0
4.339319467544556,-364,-1875,708,114378,0
4.379333972930908,-308,-1835,721,114183,0
4.419346570968628,-377,-1838,737,113976,0
4.459298849105835,-365,-1859,756,113888,0
4.499299049377441,-356,-1863,746,113868,0
4.539380073547363,-340,-1865,762,113842,0
4.579302072525024,-366,-1857,745,113850,0
4.61829948425293,-360,-1879,717,113835,0
4.658305406570435,-361,-1884,735,113787,0
4.698307991027832,-370,-1866,744,113735,0
4.738381624221802,-375,-1885,722,113730,0
4.778302431106567,-421,-1865,747,113721,0
4.818453311920166,-403,-1854,778,113696,0
4.8583080768585205,-391,-1879,760,113647,0
4.898488759994507,-402,-1879,724,113621,0
4.938342332839966,-388,-1893,720,113573,0
4.978764057159424,-395,-1893,719,113386,0
5.018298149108887,-393,-1889,735,113074,0
5.058358192443848,-419,-1885,725,112869,0
5.097340106964111,-430,-1885,725,112793,0
5.137315988540649,-454,-1865,744,112747,0
5.177287340164185,-451,-1860,734,112723,0
5.217365264892578,-438,-1863,728,112720,0
5.2573182582855225,-436,-1858,721,112641,0
5.297291278839111,-469,-1849,720,112576,0
5.337347507476807,-470,-1863,706,112531,0
5.377368450164795,-484,-1841,718,112586,0
5.417297840118408,-486,-1830,715,112644,0
5.457338571548462,-503,-1843,754,112654,0
5.497305154800415,-484,-1811,749,112645,0
5.537326097488403,-444,-1832,704,112661,0
5.576321125030518,-462,-1856,699,112607,0
5.616313695907593,-463,-1880,664,112423,0
5.65630316734314,-439,-1843,624,112142,0
5.6964430809021,-474,-1857,667,111932,0
5.736311674118042,-564,-1882,697,111766,0
5.776738405227661,-548,-1894,668,111688,0
5.816314935684204,-483,-1913,637,111619,0
5.856417894363403,-420,-1919,604,111576,0
5.896315097808838,-444,-1889,609,111469,0
5.936367511749268,-526,-1888,656,111320,0
5.97668981552124,-555,-1888,668,111256,0
6.016357421875,-567,-1861,657,111223,0
6.055392742156982,-507,-1863,695,111231,0
6.09532904624939,-545,-1844,675,111260,0
6.135338544845581,-588,-1818,705,111258,0
6.175948619842529,-701,-1836,667,111279,0
6.215444564819336,-736,-1864,603,111246,0
6.255357027053833,-709,-1880,565,111046,0
6.295382499694824,-556,-1889,558,110661,0
6.335358619689941,-522,-1874,590,110308,0
6.3753557205200195,-556,-1868,617,110164,0
6.41535758972168,-631,-1868,617,110167,0
6.455435037612915,-668,-1851,586,110218,0
6.49532675743103,-689,-1860,579,110238,0
6.534346342086792,-672,-1860,591,110147,0
6.574366569519043,-661,-1847,620,110030,0
6.614321231842041,-634,-1850,642,109959,0
6.654370069503784,-646,-1840,635,109998,0
6.69437837600708,-667,-1827,614,110050,0
6.735222816467285,-681,-1841,613,110125,0
6.774592399597168,-676,-1823,610,110177,0
6.8143391609191895,-703,-1831,613,110198,0
6.85434103012085,-693,-1824,591,110193,0
6.894379377365112,-654,-1845,588,110144,0
6.934340000152588,-658,-1845,591,109897,0
6.974346160888672,-666,-1835,640,109589,0
7.014318943023682,-676,-1826,637,109394,0
7.053576231002808,-681,-1832,615,109306,0
7.093343496322632,-686,-1826,619,109289,0
7.133341073989868,-690,-1834,639,109341,0
7.173376798629761,-676,-1835,624,109333,0
7.213335990905762,-648,-1841,629,109298,0
7.253409385681152,-639,-1847,624,109228,0
7.293351173400879,-635,-1852,585,109195,0
7.33332085609436,-625,-1838,595,109194,0
7.373382568359375,-638,-1846,614,109233,0
7.413607358932495,-671,-1834,626,109236,0
7.453460454940796,-668,-1847,636,109279,0
7.4923436641693115,-685,-1829,626,109360,0
7.532343864440918,-672,-1824,633,109405,0
7.572469472885132,-668,-1846,621,109353,0
7.612377882003784,-641,-1849,614,109117,0
7.65233302116394,-636,-1837,618,108824,0
7.692336559295654,-667,-1856,605,108720,0
7.732352018356323,-659,-1850,620,108698,0
7.772384881973267,-645,-1832,628,108695,0
7.8126044273376465,-664,-1841,633,108658,0
7.852365970611572,-658,-1835,626,108575,0
7.892444372177124,-651,-1851,609,108417,0
7.9323437213897705,-647,-1847,616,108318,0
7.971344947814941,-649,-1838,612,108373,0
8.011457920074463,-650,-1843,622,108456,0
8.051338195800781,-658,-1851,607,108527,0
8.091354370117188,-651,-1851,616,108602,0
8.131392002105713,-655,-1845,606,108653,0
8.171396732330322,-649,-1832,615,108788,0
8.211574792861938,-658,-1840,616,108909,0
8.251569509506226,-647,-1846,606,109087,0
8.291428327560425,-656,-1841,602,109099,0
8.331390380859375,-650,-1835,612,109071,0
8.371346712112427,-655,-1834,609,109126,0
8.411374568939209,-650,-1851,627,109291,0
8.450351476669312,-654,-1844,620,109511,0
8.490347146987915,-674,-1832,624,109779,0
8.53037714958191,-636,-1840,613,109970,0
8.570405006408691,-640,-1862,587,110149,0
8.610435962677002,-649,-1845,621,110254,0
8.650482892990112,-644,-1830,612,110386,0
8.690372943878174,-652,-1847,622,110409,0
8.730406999588013,-648,-1832,614,110342,0
8.77144169807434,-668,-1833,632,110316,0
8.81064510345459,-643,-1820,604,110409,0
8.850512742996216,-667,-1835,614,110464,0
8.890376091003418,-647,-1811,622,110457,0
8.930478572845459,-677,-1844,622,110403,0
8.969329595565796,-653,-1839,605,110154,0
9.009353399276733,-658,-1843,613,109849,0
9.049378395080566,-678,-1838,618,109694,0
9.089369773864746,-674,-1841,627,109681,0
9.12935733795166,-678,-1837,628,109751,0
9.1694495677948,-658,-1839,611,109887,0
9.209357738494873,-644,-1836,604,110025,0
9.249505996704102,-679,-1830,615,110005,0
9.289367437362671,-677,-1828,629,109951,0
9.329355239868164,-702,-1834,625,109963,0
9.369364500045776,-665,-1836,622,109963,0
9.409459590911865,-665,-1829,617,109940,0
9.44836139678955,-672,-1838,607,109924,0
9.488345623016357,-660,-1838,611,109927,0
9.528347730636597,-660,-1838,612,109898,0
9.568384408950806,-666,-1843,620,109906,0
9.608545064926147,-671,-1827,625,109914,0
9.648358583450317,-670,-1845,634,109902,0
9.688339471817017,-663,-1831,600,109702,0
9.728384971618652,-668,-1832,597,109391,0
9.768691062927246,-664,-1836,618,109199,0
9.808377742767334,-671,-1839,620,109249,0
9.848532438278198,-672,-1835,628,109323,0
9.888484477996826,-694,-1834,628,109372,0
9.927345514297485,-661,-1838,607,109354,0
9.967374801635742,-657,-1841,608,109232,0
10.007357835769653,-667,-1833,603,109092,0
10.047409296035767,-662,-1860,622,109018,0
10.087370157241821,-670,-1836,618,109020,0
10.127395153045654,-672,-1839,618,109044,0
10.16738247871399,-669,-1834,626,109062,0
10.20739221572876,-676,-1836,609,109082,0
10.247618198394775,-677,-1828,632,109083,0
10.287360668182373,-656,-1835,613,109149,0
10.327383995056152,-660,-1833,623,109156,0
10.367387056350708,-677,-1858,626,109185,0
10.407361507415771,-648,-1832,613,109069,0
10.44664478302002,-665,-1834,606,108934,0
10.486361265182495,-665,-1831,618,108953,0
10.526365041732788,-665,-1831,617,109082,0
10.566352844238281,-660,-1827,620,109218,0
10.606390476226807,-640,-1842,612,109348,0
10.647048473358154,-658,-1839,613,109373,0
10.68647813796997,-639,-1845,610,109398,0
10.726361751556396,-657,-1840,618,109394,0
10.76636028289795,-668,-1832,619,109437,0
10.806376457214355,-653,-1837,622,109476,0
10.846616268157959,-646,-1845,614,109580,0
10.88639760017395,-671,-1835,611,109630,0
10.925389528274536,-647,-1841,611,109699,0
10.96541714668274,-651,-1843,611,109760,0
11.005367517471313,-663,-1833,613,109802,0
11.045384407043457,-657,-1849,627,109839,0
11.085422277450562,-644,-1852,602,109831,0
11.125386953353882,-636,-1833,614,109596,0
11.165458917617798,-649,-1845,622,109402,0
11.205393552780151,-660,-1844,616,109430,0
11.24537706375122,-638,-1838,624,109520,0
11.285416841506958,-634,-1855,617,109606,0
11.325361013412476,-651,-1851,612,109697,0
11.365376949310303,-640,-1851,620,109734,0
11.404408693313599,-632,-1845,606,109779,0
11.444348096847534,-658,-1844,616,109819,0
11.484412431716919,-648,-1841,615,109880,0
11.524389505386353,-648,-1842,607,109969,0
11.564369440078735,-651,-1846,620,109984,0
11.60440707206726,-640,-1843,621,109989,0
11.644362211227417,-666,-1847,616,110055,0
11.684383153915405,-660,-1842,613,110109,0
11.724388360977173,-645,-1851,623,110146,0
11.764417171478271,-652,-1852,599,110071,0
11.804372310638428,-650,-1842,613,109843,0
11.844356775283813,-657,-1843,613,109672,0
11.883697271347046,-656,-1839,618,109674,0
11.923389911651611,-659,-1839,632,109716,0
11.96339201927185,-637,-1846,621,109779,0
12.003433227539062,-638,-1853,612,109832,0
12.043365001678467,-640,-1855,607,109847,0
12.083368062973022,-643,-1846,613,109860,0
12.12355351448059,-658,-1835,617,109898,0
12.163394927978516,-658,-1838,624,109953,0
12.203808307647705,-644,-1842,604,110052,0
12.243736028671265,-648,-1846,608,110179,0
12.28354549407959,-662,-1844,626,110295,0
12.32338571548462,-640,-1844,607,110422,0
12.362407445907593,-673,-1830,637,110519,0
12.402402877807617,-665,-1837,679,110748,0
12.442487478256226,-730,-1821,740,110951,0
12.482985019683838,-714,-1693,1015,111145,0
12.522550582885742,-672,-1611,1462,111616,0
12.5623939037323,-831,-1745,1282,112783,0
12.602434158325195,-636,-1754,1114,113801,0
12.642659664154053,-499,-1535,1369,114223,0
12.682703971862793,-482,-1429,1273,114732,0
12.722435474395752,-463,-1371,1349,115444,0
12.762442588806152,-412,-1254,1391,116250,0
12.802462816238403,-357,-1191,1437,117000,0
12.841401815414429,-265,-1129,1603,117426,0
12.881727695465088,-212,-1050,1689,117743,0
12.921401500701904,-218,-988,1741,118034,0
12.961393594741821,-244,-974,1781,118278,0
13.001388549804688,-295,-967,1730,118434,0
13.04143500328064,-294,-1003,1736,118572,0
13.081692457199097,-342,-999,1762,118666,0
13.121442317962646,-359,-1012,1744,118647,0
13.161402702331543,-291,-1023,1725,118436,0
13.201404333114624,-274,-1048,1675,118327,0
13.241461038589478,-269,-1126,1507,118432,0
13.28172779083252,-359,-1258,1277,118547,0
13.320508480072021,-373,-1488,1088,118585,0
13.360460758209229,-380,-1729,1123,118445,0
13.400469303131104,-622,-1951,1023,118123,0
13.440478324890137,-715,-1958,1017,117826,0
13.480474710464478,-586,-1862,1219,117425,0
13.52042031288147,-503,-1767,1248,116922,0
13.56049656867981,-551,-1844,988,116589,0
13.600417375564575,-587,-1893,673,116493,0
13.640572547912598,-587,-1928,505,116566,0
13.68045163154602,-535,-1914,446,116690,0
13.720406532287598,-515,-1922,453,116628,0
13.760387897491455,-456,-1928,518,116490,0
13.79942536354065,-407,-1948,547,116304,0
13.839417219161987,-369,-1951,531,115990,0
13.879421710968018,-389,-1951,509,115574,0
13.919422626495361,-468,-1925,531,115311,0
13.959413528442383,-548,-1919,542,115163,0
13.999408721923828,-553,-1888,583,115074,0
14.039422035217285,-508,-1906,614,115008,0
14.079394340515137,-450,-1927,591,114979,0
14.119422435760498,-462,-1911,562,114940,0
14.15941572189331,-467,-1930,537,115052,0
14.199463367462158,-474,-1928,519,115376,0
14.25153660774231,-493,-1906,539,115752,0
14.279767513275146,-474,-1905,576,116152,0
14.318448543548584,-486,-1910,575,116690,0
14.358452081680298,-494,-1911,559,117273,0
14.398409843444824,-497,-1901,565,117695,0
14.438384294509888,-516,-1916,565,117911,0
14.478394985198975,-502,-1916,561,117879,0
14.518563270568848,-468,-1907,543,117649,0
14.558448076248169,-475,-1912,569,117453,0
14.598572731018066,-502,-1910,546,117303,0
14.63842248916626,-501,-1907,570,117219,0
14.678401947021484,-493,-1904,578,117101,0
14.71854853630066,-477,-1905,576,117115,0
14.758431673049927,-507,-1899,573,117131,0
14.797430276870728,-484,-1915,566,117191,0
14.837449789047241,-482,-1909,569,117358,0
14.877416849136353,-499,-1909,561,117541,0
14.917702913284302,-498,-1905,571,117697,0
14.957407712936401,-490,-1910,562,117813,0
14.997404336929321,-486,-1913,573,117834,0
15.037415027618408,-507,-1904,570,117816,0
15.077419996261597,-493,-1915,575,117662,0
15.11764645576477,-491,-1903,565,117242,0
15.157414674758911,-503,-1894,564,116619,0
15.19743824005127,-482,-1903,563,116191,0
15.2374267578125,-517,-1906,560,116009,0
15.276402711868286,-499,-1900,572,115736,0
15.316742181777954,-479,-1905,593,115349,0
15.356399297714233,-499,-1902,545,114989,0
15.396422147750854,-504,-1911,560,114617,0
15.436419010162354,-486,-1908,549,114290,0
15.476423978805542,-507,-1913,561,114010,0
15.516470432281494,-493,-1912,591,113808,0
15.556444883346558,-504,-1874,585,113768,0
15.59641981124878,-517,-1911,503,113859,0
15.636423587799072,-497,-1909,554,113938,0
15.676433086395264,-491,-1895,573,114017,0
15.716407775878906,-512,-1929,566,114139,0
15.755417346954346,-492,-1906,572,114033,0
15.795423030853271,-474,-1908,581,113772,0
15.835442304611206,-498,-1914,539,113670,0
15.875573873519897,-499,-1918,544,113735,0
15.915556192398071,-495,-1904,572,113816,0
15.955448150634766,-490,-1909,558,114048,0
15.995435237884521,-484,-1919,542,114340,0
16.035419940948486,-483,-1925,580,114617,0
16.075462341308594,-487,-1924,566,114914,0
16.11545467376709,-495,-1924,515,115250,0
16.15542507171631,-493,-1906,566,115395,0
16.195430755615234,-467,-1912,556,115490,0
16.235446214675903,-484,-1925,526,115528,0
16.274431705474854,-478,-1921,562,115447,0
16.31449818611145,-502,-1911,555,115386,0
16.35442614555359,-496,-1921,550,115354,0
16.39453101158142,-490,-1916,559,115165,0
16.434938669204712,-478,-1905,547,114822,0
16.47446846961975,-487,-1921,540,114607,0
16.514465808868408,-494,-1909,565,114508,0
16.554522275924683,-491,-1898,561,114488,0
16.594428539276123,-491,-1913,549,114490,0
16.634450435638428,-495,-1912,567,114473,0
16.674436569213867,-484,-1916,546,114451,0
16.714487552642822,-473,-1917,549,114435,0
16.753437042236328,-505,-1908,563,114446,0
16.793434381484985,-492,-1921,551,114462,0
16.833449363708496,-471,-1911,554,114490,0
16.87343192100525,-491,-1917,547,114554,0
16.913418531417847,-497,-1907,561,114535,0
16.953831434249878,-475,-1914,553,114481,0
16.99345302581787,-494,-1907,559,114419,0
17.033443689346313,-487,-1928,565,114360,0
17.07465362548828,-480,-1915,538,114187,0
17.11344885826111,-481,-1918,569,113917,0
17.153459548950195,-501,-1914,562,113846,0
17.193565130233765,-503,-1917,554,113970,0
17.23356580734253,-493,-1896,569,114096,0
17.272453546524048,-482,-1906,587,114167,0
17.312460899353027,-496,-1907,554,114237,0
17.352670907974243,-476,-1918,539,114254,0
17.39244270324707,-473,-1913,553,114237,0
17.432464599609375,-519,-1916,569,114270,0
17.472437858581543,-475,-1919,550,114367,0
17.512459754943848,-506,-1908,567,114419,0
17.552819967269897,-502,-1913,551,114466,0
17.59272527694702,-493,-1905,550,114482,0
17.63244867324829,-490,-1907,557,114486,0
17.67245364189148,-500,-1911,552,114548,0
17.712446928024292,-503,-1909,561,114579,0
17.75167155265808,-499,-1915,564,114534,0
17.79145574569702,-490,-1910,526,114283,0
17.831449508666992,-497,-1905,555,114059,0
17.871459007263184,-492,-1924,547,114087,0
17.911463022232056,-500,-1904,554,114203,0
17.951451301574707,-498,-1909,542,114309,0
17.991527795791626,-507,-1910,556,114334,0
18.031453371047974,-492,-1906,545,114326,0
18.071446895599365,-499,-1919,548,114284,0
18.111502647399902,-500,-1913,550,114289,0
18.151468753814697,-506,-1917,547,114315,0
18.19207453727722,-500,-1910,550,114359,0
18.231114864349365,-503,-1917,540,114361,0
18.27053713798523,-506,-1918,553,114373,0
18.31046438217163,-507,-1911,552,114418,0
18.350500106811523,-530,-1908,545,114444,0
18.390480279922485,-508,-1897,576,114465,0
18.43050456047058,-524,-1876,645,114495,0
18.470463514328003,-586,-1896,621,114485,0
18.510496139526367,-576,-1900,584,114315,0
18.55046582221985,-542,-1893,567,114078,0
18.590500354766846,-546,-1892,562,114090,0
18.630475282669067,-528,-1903,515,114205,0
18.670467376708984,-516,-1914,489,114338,0
18.710487604141235,-502,-1921,484,114410,0
18.74947953224182,-471,-1912,484,114439,0
18.789440870285034,-478,-1913,503,114424,0
18.829506635665894,-474,-1913,558,114365,0
18.869466304779053,-508,-1904,611,114333,0
18.909483909606934,-562,-1891,608,114294,0
18.949454307556152,-557,-1873,615,114289,0
18.98966383934021,-585,-1886,611,114262,0
19.029541492462158,-606,-1880,568,114254,0
19.069480895996094,-601,-1878,533,114248,0
19.109490156173706,-554,-1893,537,114224,0
19.149502515792847,-541,-1891,511,114278,0
19.18950366973877,-564,-1912,543,114278,0
19.22847056388855,-557,-1888,580,114116,0
19.26847529411316,-547,-1893,579,113848,0
19.30845355987549,-559,-1886,591,113737,0
19.348471879959106,-592,-1886,589,113758,0
19.388657569885254,-595,-1886,556,113833,0
19.428499937057495,-585,-1886,534,113916,0
19.4684796333313,-599,-1877,534,113927,0
19.508467435836792,-578,-1882,546,113889,0
19.548460245132446,-569,-1885,561,113847,0
19.588483810424805,-572,-1884,561,113866,0
19.628475427627563,-587,-1877,561,113907,0
19.668528079986572,-585,-1884,559,113959,0
19.707459688186646,-608,-1875,555,113999,0
19.74748706817627,-594,-1888,555,114035,0
19.7874755859375,-595,-1876,566,114079,0
19.827451467514038,-586,-1875,565,114143,0
19.867478609085083,-565,-1893,567,114156,0
19.90745997428894,-584,-1873,565,114195,0
19.947530031204224,-594,-1887,566,114183,0
19.987496852874756,-570,-1879,558,114011,0
20.027514457702637,-575,-1871,564,113719,0
20.067506551742554,-595,-1876,553,113652,0
20.107475996017456,-604,-1882,567,113700,0
20.147506713867188,-592,-1876,561,113786,0
20.187509059906006,-579,-1880,563,113879,0
20.226513862609863,-592,-1874,557,113920,0
20.2665433883667,-574,-1884,553,113881,0
20.306483268737793,-577,-1884,561,113875,0
20.34648561477661,-579,-1893,560,113891,0
20.386671781539917,-586,-1879,552,113956,0
20.426466941833496,-588,-1874,560,113989,0
20.466472387313843,-587,-1877,551,114035,0
20.50653100013733,-576,-1881,552,114054,0
20.546460390090942,-585,-1887,546,114068,0
20.586498022079468,-586,-1897,555,114102,0
20.626797199249268,-573,-1879,549,114141,0
20.667276859283447,-592,-1896,562,114185,0
20.705471515655518,-584,-1895,540,114084,0
20.745481252670288,-577,-1884,542,113810,0
20.785564184188843,-585,-1879,547,113688,0
20.825469732284546,-593,-1890,552,113747,0
20.86547565460205,-589,-1875,552,113811,0
20.905461072921753,-595,-1888,547,113886,0
20.94550132751465,-594,-1883,545,113909,0
20.985482931137085,-574,-1894,541,113865,0
21.025866270065308,-588,-1889,547,113781,0
21.065468549728394,-604,-1887,547,113772,0
21.105499505996704,-579,-1889,553,113813,0
21.145496129989624,-597,-1883,558,113878,0
21.185813426971436,-589,-1884,555,113931,0
21.22450065612793,-577,-1891,542,113975,0
21.26452660560608,-602,-1883,549,113999,0
21.30453872680664,-575,-1890,556,114051,0
21.344532012939453,-581,-1885,546,114132,0
21.38447618484497,-593,-1892,570,114182,0
21.42587685585022,-591,-1878,549,114075,0
21.464634895324707,-581,-1880,551,113804,0
21.504475593566895,-607,-1877,545,113628,0
21.54450011253357,-603,-1892,565,113673,0
21.58447813987732,-586,-1876,561,113730,0
21.624504327774048,-592,-1892,547,113832,0
21.664490938186646,-597,-1877,550,113860,0
21.70347309112549,-573,-1887,553,113798,0
21.74350881576538,-591,-1882,544,113761,0
21.783517360687256,-607,-1886,549,113767,0
21.82353639602661,-583,-1887,555,113810,0
21.863481044769287,-567,-1894,551,113871,0
21.90348982810974,-593,-1884,550,113906,0
21.943512678146362,-591,-1881,566,113947,0
21.983597993850708,-597,-1881,555,113955,0
22.023703813552856,-582,-1882,548,113975,0
22.063523769378662,-580,-1893,567,114011,0
22.103502988815308,-585,-1896,564,114032,0
22.143505573272705,-580,-1881,535,113881,0
22.18249535560608,-563,-1885,558,113642,0
22.222574710845947,-605,-1878,556,113547,0
22.262550115585327,-603,-1885,555,113631,0
22.302518606185913,-587,-1875,571,113720,0
22.34252142906189,-591,-1880,543,113791,0
22.382493019104004,-584,-1891,551,113788,0
22.422499179840088,-591,-1888,565,113719,0
22.462498903274536,-598,-1884,569,113612,0
22.502543926239014,-588,-1885,557,113538,0
22.542584657669067,-594,-1877,558,113532,0
22.582542181015015,-588,-1882,548,113569,0
22.622625589370728,-572,-1884,563,113649,0
22.661520957946777,-592,-1885,559,113691,0
22.701557874679565,-588,-1883,555,113706,0
22.741562843322754,-569,-1893,542,113772,0
22.78150248527527,-582,-1893,553,113811,0
22.821488618850708,-554,-1894,533,113746,0
22.861573457717896,-561,-1884,538,113498,0
22.901503562927246,-565,-1885,549,113303,0
22.941537380218506,-586,-1896,511,113303,0
22.98152184486389,-601,-1895,532,113339,0
23.021541595458984,-559,-1898,554,113401,0
23.062541007995605,-589,-1894,541,113410,0
23.101513147354126,-579,-1896,557,113383,0
23.141502618789673,-554,-1904,557,113340,0
23.18051242828369,-575,-1909,532,113345,0
23.220604181289673,-575,-1892,532,113423,0
23.260498046875,-550,-1894,541,113540,0
23.30051875114441,-578,-1908,528,113635,0
23.34052324295044,-573,-1886,527,113701,0
23.380500316619873,-550,-1906,523,113731,0
23.420510292053223,-543,-1898,507,113732,0
23.461045265197754,-569,-1901,537,113734,0
23.500505685806274,-550,-1912,511,113710,0
23.540522575378418,-524,-1907,506,113413,0
23.580496788024902,-557,-1892,516,113154,0
23.6204936504364,-549,-1916,500,113109,0
23.659616470336914,-549,-1894,550,113156,0
23.699520587921143,-577,-1896,557,113232,0
23.73952007293701,-533,-1926,517,113330,0
23.779500484466553,-539,-1901,524,113358,0
23.819497108459473,-516,-1919,516,113384,0
23.86094903945923,-539,-1913,505,113445,0
23.89950466156006,-542,-1901,505,113501,0
23.93952202796936,-533,-1906,485,113549,0
23.979498624801636,-591,-1887,534,113550,0
24.01954746246338,-601,-1883,570,113522,0
24.071882724761963,-638,-1918,531,113589,0
24.10036563873291,-526,-1897,471,113684,0
24.138530492782593,-477,-1888,560,113724,0
24.178523302078247,-542,-1895,517,113602,0
24.218536376953125,-520,-1932,493,113346,0
24.258497714996338,-568,-1902,542,113176,0
24.298574686050415,-650,-1884,586,113191,0
24.338707208633423,-665,-1869,549,113282,0
24.378504991531372,-648,-1900,551,113365,0
24.418529510498047,-602,-1925,521,113407,0
24.458558320999146,-558,-1887,487,113390,0
24.498661279678345,-508,-1883,511,113403,0
24.538495540618896,-529,-1895,499,113479,0
24.578508853912354,-584,-1898,501,113586,0
24.617511510849,-600,-1897,555,113643,0
24.65754222869873,-625,-1897,541,113708,0
24.69756579399109,-630,-1897,553,113782,0
24.737540006637573,-633,-1871,576,113864,0
24.777536153793335,-643,-1892,560,113918,0
24.817673683166504,-583,-1902,497,113821,0
24.857524394989014,-567,-1899,501,113498,0
24.89751672744751,-581,-1895,516,113281,0
24.937886953353882,-580,-1888,524,113243,0
24.9778311252594,-610,-1900,524,113276,0
25.017515182495117,-546,-1894,528,113294,0
25.057564973831177,-561,-1892,512,113312,0
25.09768557548523,-623,-1878,555,113194,0
25.136528968811035,-662,-1872,567,113084,0
25.176535606384277,-570,-1894,502,113093,0
25.216522216796875,-477,-1926,449,113185,0
25.256610870361328,-585,-1926,557,113190,0
25.296553134918213,-624,-1845,572,113198,0
25.3365797996521,-569,-1895,558,113223,0
25.376513481140137,-546,-1883,497,113236,0
25.41654086112976,-577,-1842,518,113194,0
25.45656442642212,-578,-1960,522,113024,0
25.496807098388672,-580,-1943,490,112605,0
25.536588191986084,-561,-1886,542,112262,0
25.57652974128723,-544,-1906,537,112209,0
25.61556124687195,-585,-1882,490,112294,0
25.655765533447266,-637,-1855,529,112380,0
25.695634126663208,-620,-1897,356,112458,0
25.735538005828857,-612,-1945,514,112260,0
25.77559471130371,-582,-1909,610,112063,0
25.815523624420166,-488,-1957,560,112008,0
25.85552740097046,-499,-1927,472,111984,0
25.895814180374146,-469,-1884,430,111989,0
25.93552303314209,-468,-1920,371,112084,0
25.975533723831177,-533,-1956,373,112199,0
26.015537977218628,-646,-1898,533,112165,0
26.05553936958313,-707,-1834,628,112100,0
26.095561504364014,-695,-1866,595,112124,0
26.134536743164062,-632,-1921,485,112000,0
26.17453098297119,-559,-1923,469,111733,0
26.214582920074463,-494,-1928,444,111667,0
26.25457787513733,-462,-1924,447,111801,0
26.294676542282104,-495,-1922,463,111964,0
26.33454132080078,-531,-1924,506,112091,0
26.374602556228638,-566,-1907,529,112177,0
26.414550304412842,-601,-1890,525,112167,0
26.454549074172974,-605,-1912,522,112181,0
26.49510669708252,-600,-1905,510,112248,0
26.53452730178833,-572,-1906,485,112398,0
26.574527263641357,-529,-1905,497,112546,0
26.613532781600952,-594,-1892,497,112642,0
26.65354895591736,-613,-1901,507,112718,0
26.693538188934326,-588,-1904,507,112789,0
26.733497619628906,-584,-1900,527,112866,0
26.77369499206543,-573,-1906,493,112802,0
26.813552856445312,-532,-1904,498,112508,0
26.85353660583496,-532,-1912,491,112319,0
26.893574714660645,-578,-1912,494,112268,0
26.933602571487427,-588,-1908,506,112273,0
26.97353196144104,-567,-1906,502,112345,0
27.01357889175415,-574,-1894,518,112319,0
27.053553581237793,-582,-1900,504,112315,0
27.093539237976074,-565,-1904,494,112293,0
27.132545232772827,-579,-1897,500,112290,0
27.172579526901245,-586,-1899,491,112346,0
27.21255373954773,-572,-1904,501,112427,0
27.25255060195923,-604,-1897,508,112466,0
27.292552709579468,-571,-1897,493,112505,0
27.332536220550537,-585,-1890,501,112580,0
27.37255048751831,-588,-1907,498,112604,0
27.412559509277344,-570,-1909,521,112577,0
27.45255708694458,-593,-1893,493,112454,0
27.492549896240234,-582,-1898,496,112203,0
27.53278398513794,-589,-1903,504,112159,0
27.572551488876343,-597,-1900,499,112209,0
27.611566305160522,-589,-1894,493,112270,0
27.65156579017639,-583,-1893,492,112346,0
27.691544771194458,-595,-1901,493,112402,0
27.73160481452942,-599,-1895,493,112420,0
27.771538734436035,-562,-1906,502,112440,0
27.811537742614746,-599,-1891,510,112482,0
27.8515887260437,-609,-1894,493,112538,0
27.891715049743652,-566,-1901,493,112593,0
27.932368993759155,-590,-1900,488,112623,0
27.971570014953613,-606,-1898,504,112668,0
28.0115807056427,-588,-1896,500,112726,0
28.051605939865112,-617,-1885,491,112786,0
28.09082055091858,-592,-1900,505,112841,0
28.130823135375977,-597,-1909,502,112835,0
28.17060422897339,-580,-1889,493,112663,0
28.210553407669067,-589,-1897,499,112527,0
28.25057888031006,-617,-1905,498,112505,0
28.29058814048767,-585,-1900,504,112562,0
28.330963611602783,-591,-1896,500,112569,0
28.370572805404663,-595,-1897,502,112588,0
28.41055655479431,-572,-1907,501,112558,0
28.450560808181763,-594,-1900,496,112529,0
28.49056601524353,-569,-1905,504,112547,0
28.530556678771973,-599,-1904,497,112613,0
28.57055377960205,-622,-1899,501,112680,0
28.609560251235962,-573,-1898,498,112730,0
28.649550914764404,-588,-1903,484,112779,0
28.68956685066223,-595,-1897,493,112841,0
28.72956943511963,-590,-1903,502,112874,0
28.76961040496826,-594,-1903,502,112909,0
28.809609413146973,-582,-1890,508,112940,0
28.84960389137268,-586,-1915,498,112953,0
28.88956332206726,-569,-1909,487,112795,0
28.929534673690796,-579,-1900,507,112601,0
28.9695565700531,-602,-1893,488,112554,0
29.009565591812134,-586,-1898,504,112602,0
29.04955530166626,-583,-1895,505,112652,0
29.08863592147827,-587,-1894,500,112703,0
29.128688097000122,-568,-1906,506,112741,0
29.168595790863037,-585,-1906,473,112755,0
29.20861840248108,-568,-1907,497,112779,0
29.248598098754883,-576,-1911,497,112835,0
29.28861713409424,-591,-1905,503,112895,0
29.328567266464233,-572,-1893,498,112926,0
29.36866521835327,-569,-1918,495,112970,0
29.40860915184021,-584,-1909,489,112989,0
29.448611736297607,-579,-1903,503,113037,0
29.488567352294922,-574,-1904,503,113087,0
29.528589248657227,-588,-1901,503,113176,0
29.569236040115356,-577,-1915,503,113242,0
29.60757350921631,-566,-1906,481,113170,0
29.647575855255127,-593,-1883,497,112973,0
29.68758535385132,-582,-1905,499,112900,0
29.72758650779724,-583,-1908,495,112933,0
29.768490314483643,-589,-1901,506,112972,0
29.80759358406067,-570,-1903,508,113015,0
29.847599983215332,-572,-1909,494,113045,0
29.887603044509888,-581,-1903,488,113024,0
29.927626848220825,-575,-1906,508,113008,0
29.967970609664917,-574,-1902,498,113014,0
30.008233547210693,-572,-1899,491,113055,0
30.047602891921997,-554,-1904,494,113104,0
30.08658528327942,-595,-1901,504,113166,0
30.126593589782715,-586,-1898,504,113207,0
30.16722083091736,-569,-1891,501,113239,0
30.20673179626465,-591,-1899,487,113297,0
30.246585607528687,-580,-1897,507,113340,0
30.286623001098633,-594,-1903,496,113347,0
30.326616764068604,-577,-1902,494,113160,0
30.366674184799194,-573,-1905,501,112967,0
30.406620740890503,-615,-1895,498,112888,0
30.446627855300903,-584,-1902,503,112913,0
30.486573219299316,-577,-1895,503,112939,0
30.526646375656128,-587,-1901,503,112986,0
30.56681251525879,-591,-1904,492,113023,0
30.605581998825073,-574,-1899,498,113006,0
30.645569562911987,-580,-1905,504,113006,0
30.68563222885132,-604,-1898,496,113046,0
30.725998640060425,-586,-1908,489,113062,0
30.766197204589844,-572,-1907,496,113065,0
30.805563926696777,-590,-1908,509,113092,0
30.845600605010986,-585,-1914,510,113123,0
30.885819911956787,-596,-1898,494,113143,0
30.925611972808838,-593,-1900,502,113158,0
30.96555995941162,-594,-1889,496,113197,0
31.005632162094116,-577,-1915,493,113197,0
31.04556941986084,-564,-1910,482,113081,0
31.086209297180176,-591,-1891,494,112920,0
31.12459373474121,-598,-1901,494,112874,0
31.164710760116577,-607,-1894,494,112906,0
31.20461416244507,-584,-1903,510,112934,0
31.24547553062439,-569,-1905,493,112986,0
31.284594774246216,-585,-1908,492,113019,0
31.324591159820557,-592,-1898,485,113019,0
31.364599466323853,-566,-1909,500,113021,0
31.404577255249023,-601,-1894,495,113052,0
31.44488787651062,-591,-1886,497,113077,0
31.484606504440308,-583,-1903,496,113119,0
31.52456569671631,-584,-1907,490,113177,0
31.56462526321411,-587,-1903,499,113229,0
31.604738473892212,-589,-1896,497,113276,0
31.643606424331665,-593,-1900,497,113311,0
31.683622121810913,-583,-1894,506,113371,0
31.723602294921875,-581,-1916,507,113414,0
31.763662815093994,-573,-1902,494,113335,0
31.803587913513184,-556,-1893,500,113164,0
31.843596935272217,-588,-1903,494,113084,0
31.88360595703125,-584,-1900,508,113108,0
31.92361092567444,-580,-1889,504,113136,0
31.96371579170227,-585,-1899,512,113182,0
32.00396180152893,-567,-1912,500,113193,0
32.0435905456543,-586,-1900,497,113198,0
32.08358359336853,-584,-1900,499,113186,0
32.12258744239807,-576,-1898,497,113215,0
32.162604570388794,-593,-1899,501,113259,0
32.20324373245239,-583,-1897,510,113302,0
32.24259042739868,-573,-1904,502,113343,0
32.28258919715881,-582,-1900,489,113366,0
32.32265853881836,-591,-1908,511,113392,0
32.36259579658508,-580,-1910,495,113417,0
32.40270519256592,-590,-1906,514,113438,0
32.44258642196655,-579,-1911,489,113378,0
32.48258852958679,-567,-1900,498,113205,0
32.52262306213379,-599,-1890,500,113065,0
32.56258702278137,-577,-1901,502,113109,0
32.60283398628235,-588,-1906,510,113130,0
32.641637325286865,-585,-1895,500,113199,0
32.68166446685791,-568,-1906,498,113256,0
32.721646785736084,-584,-1899,489,113263,0
32.761618852615356,-599,-1910,495,113259,0
32.80167007446289,-579,-1900,496,113264,0
32.84210252761841,-589,-1892,496,113308,0
32.881648778915405,-588,-1902,499,113346,0
32.92162227630615,-582,-1894,502,113383,0
32.96159291267395,-584,-1902,507,113385,0
33.00164484977722,-584,-1896,499,113442,0
33.04168248176575,-597,-1897,486,113481,0
33.08172249794006,-598,-1890,506,113539,0
33.1216242313385,-595,-1911,497,113549,0
33.1606330871582,-588,-1897,494,113367,0
33.20060181617737,-589,-1896,502,113187,0
33.24060606956482,-598,-1897,488,113161,0
33.28062343597412,-598,-1907,499,113203,0
33.320634841918945,-598,-1890,498,113251,0
33.36061143875122,-601,-1898,505,113296,0
33.400607109069824,-595,-1907,493,113269,0
33.44061851501465,-584,-1909,493,113229,0
33.48064398765564,-597,-1901,502,113192,0
33.52062630653381,-616,-1894,496,113247,0
33.56062459945679,-594,-1894,496,113298,0
33.60061001777649,-585,-1899,498,113349,0
33.6413733959198,-590,-1897,492,113399,0
33.67964196205139,-601,-1894,495,113419,0
33.71963405609131,-575,-1897,494,113462,0
33.759642124176025,-600,-1894,508,113493,0
33.799614667892456,-617,-1912,509,113494,0
33.83960556983948,-581,-1896,487,113366,0
33.879844188690186,-613,-1893,501,113135,0
33.91961431503296,-602,-1888,498,113056,0
33.960259199142456,-581,-1907,502,113086,0
33.999637842178345,-598,-1891,507,113101,0
34.04066205024719,-590,-1901,501,113141,0
34.07961916923523,-578,-1906,493,113138,0
34.12123250961304,-588,-1897,492,113171,0
34.16123056411743,-578,-1898,503,113162,0
34.19861316680908,-595,-1899,491,113213,0
34.23867869377136,-604,-1898,493,113255,0
34.27876806259155,-588,-1903,493,113302,0
34.31867575645447,-594,-1895,497,113337,0
34.358699560165405,-597,-1888,497,113386,0
34.39863610267639,-587,-1906,504,113368,0
34.43862462043762,-592,-1899,497,113380,0
34.47866702079773,-598,-1906,501,113348,0
34.51862955093384,-576,-1897,489,113263,0
34.55884909629822,-599,-1893,497,113048,0
34.59865641593933,-616,-1899,496,112972,0
34.63860726356506,-582,-1903,503,113044,0
34.677632093429565,-598,-1885,497,113109,0
34.718422412872314,-591,-1892,507,113180,0
34.75777840614319,-581,-1896,499,113230,0
34.79762315750122,-575,-1897,493,113228,0
34.83765482902527,-591,-1896,510,113221,0
34.877872705459595,-589,-1892,508,113266,0
34.9177565574646,-570,-1899,502,113311,0
34.957679748535156,-590,-1896,500,113363,0
34.99764847755432,-577,-1903,508,113395,0
35.037636280059814,-584,-1891,506,113451,0
35.077709674835205,-588,-1904,508,113479,0
35.117828607559204,-585,-1896,516,113570,0
35.15764379501343,-610,-1911,510,113608,0
35.19664216041565,-583,-1902,479,113515,0
35.237212896347046,-568,-1898,503,113324,0
35.27668571472168,-600,-1899,501,113240,0
35.31662678718567,-596,-1897,512,113272,0
35.35664248466492,-591,-1890,507,113352,0
35.396645307540894,-613,-1891,499,113386,0
35.43670344352722,-589,-1904,503,113388,0
35.476951599121094,-584,-1897,508,113324,0
35.5166232585907,-589,-1893,510,113306,0
35.55666637420654,-585,-1896,515,113311,0
35.596919298172,-587,-1894,498,113376,0
35.63662815093994,-582,-1896,504,113444,0
35.675676107406616,-581,-1901,496,113502,0
35.715774059295654,-588,-1895,503,113533,0
35.75591444969177,-591,-1893,510,113556,0
35.79563331604004,-593,-1894,512,113602,0
35.83565354347229,-592,-1901,501,113589,0
35.87568259239197,-577,-1900,479,113440,0
35.91563582420349,-598,-1896,502,113221,0
35.955647468566895,-611,-1893,502,113135,0
35.995685338974,-593,-1904,507,113103,0
36.035674810409546,-602,-1891,508,113146,0
36.0765814781189,-599,-1895,504,113182,0
36.11564660072327,-588,-1896,491,113184,0
36.15566873550415,-595,-1903,501,113161,0
36.19465446472168,-593,-1901,506,113152,0
36.23462128639221,-597,-1897,507,113149,0
36.27495718002319,-596,-1900,495,113201,0
36.31462597846985,-599,-1894,505,113251,0
36.35462284088135,-591,-1908,492,113287,0
36.39464211463928,-582,-1898,489,113295,0
36.43467426300049,-604,-1904,491,113289,0
36.475435972213745,-592,-1889,491,113304,0
36.5147979259491,-606,-1912,498,113275,0
36.55462694168091,-584,-1902,487,113131,0
36.59469676017761,-597,-1901,500,112875,0
36.63479661941528,-592,-1892,489,112831,0
36.67419385910034,-597,-1905,490,112884,0
36.71365427970886,-604,-1906,495,112926,0
36.75367450714111,-598,-1895,497,112972,0
36.793654918670654,-593,-1900,476,112984,0
36.83365058898926,-575,-1901,500,112949,0
36.87366437911987,-584,-1900,493,112952,0
36.913660764694214,-589,-1902,483,112967,0
36.95364999771118,-596,-1892,492,112968,0
36.99365520477295,-609,-1892,488,112950,0
37.03365874290466,-581,-1907,480,113007,0
37.07379126548767,-578,-1897,487,113020,0
37.11366319656372,-588,-1906,488,113103,0
37.15366268157959,-580,-1904,492,113148,0
37.192660093307495,-607,-1906,495,113182,0
37.232661724090576,-581,-1905,476,113047,0
37.27270269393921,-568,-1898,490,112811,0
37.31265425682068,-604,-1901,482,112694,0
37.352681159973145,-584,-1907,493,112724,0
37.39270830154419,-585,-1904,503,112805,0
37.432663440704346,-601,-1900,496,112864,0
37.472734689712524,-578,-1892,485,112882,0
37.51297450065613,-578,-1906,483,112844,0
37.552661657333374,-590,-1907,490,112815,0
37.5926411151886,-579,-1896,509,112804,0
37.63266730308533,-620,-1891,509,112881,0
37.67266654968262,-590,-1907,479,112952,0
37.71169638633728,-566,-1908,487,113015,0
37.75171637535095,-567,-1902,474,113064,0
37.791640758514404,-561,-1924,487,113099,0
37.83168888092041,-584,-1900,510,113165,0
37.87165713310242,-609,-1903,510,113257,0
37.91165590286255,-579,-1903,493,113234,0
37.95164728164673,-585,-1892,496,113080,0
37.99165630340576,-596,-1897,493,112997,0
38.03199553489685,-607,-1900,506,113009,0
38.07166910171509,-586,-1896,506,113103,0
38.11189532279968,-580,-1900,497,113163,0
38.151721477508545,-595,-1901,488,113204,0
38.19164228439331,-582,-1905,489,113182,0
38.23069453239441,-596,-1897,492,113165,0
38.27065706253052,-602,-1898,499,113184,0
38.310691118240356,-575,-1901,493,113237,0
38.350693702697754,-588,-1899,485,113293,0
38.39067602157593,-584,-1901,509,113322,0
38.43069291114807,-591,-1892,500,113355,0
38.47067618370056,-596,-1898,503,113374,0
38.51122999191284,-586,-1890,508,113391,0
38.550724267959595,-589,-1910,496,113386,0
38.59086275100708,-564,-1904,483,113207,0
38.630667209625244,-594,-1893,496,112984,0
38.67070937156677,-608,-1893,500,112931,0
38.70986747741699,-598,-1900,513,112999,0
38.74970507621765,-601,-1887,511,113060,0
38.78968381881714,-590,-1898,498,113132,0
38.829668045043945,-577,-1894,497,113144,0
38.86961245536804,-597,-1892,509,113101,0
38.90968561172485,-596,-1889,515,113082,0
38.949684143066406,-594,-1886,511,113105,0
38.98972010612488,-609,-1891,507,113151,0
39.02969288825989,-586,-1905,505,113172,0
39.06966805458069,-574,-1899,513,113185,0
39.109880685806274,-594,-1900,513,113192,0
39.1497061252594,-588,-1894,509,113255,0
39.189998626708984,-617,-1891,513,113287,0
39.22872257232666,-589,-1911,502,113233,0
39.26873421669006,-575,-1891,492,113000,0
39.308674335479736,-590,-1898,508,112779,0
39.34874510765076,-597,-1892,506,112758,0
39.38887047767639,-582,-1890,518,112803,0
39.42871284484863,-608,-1890,512,112852,0
39.468721866607666,-575,-1906,507,112872,0
39.50870323181152,-574,-1902,497,112830,0
39.54875707626343,-587,-1897,508,112760,0
39.58876419067383,-588,-1894,503,112773,0
39.62866139411926,-593,-1897,498,112829,0
39.66867661476135,-588,-1896,508,112906,0
39.707966566085815,-588,-1902,506,112937,0
39.74775981903076,-585,-1907,503,112977,0
39.78770589828491,-591,-1896,513,113014,0
39.82771968841553,-605,-1894,510,113065,0
39.86768364906311,-603,-1890,510,113072,0
39.907673358917236,-574,-1895,491,112922,0
39.947707176208496,-603,-1895,497,112630,0
39.9876868724823,-610,-1893,513,112459,0
40.02771210670471,-585,-1900,513,112459,0
40.067726850509644,-598,-1897,517,112532,0
40.107691287994385,-583,-1897,505,112560,0
40.14793515205383,-587,-1897,499,112645,0
40.18775677680969,-598,-1894,503,112645,0
40.22669243812561,-568,-1901,510,112668,0
40.26670169830322,-605,-1890,509,112731,0
40.30665159225464,-590,-1900,495,112831,0
40.346723556518555,-569,-1903,495,112926,0
40.38667678833008,-592,-1892,509,112987,0
40.42715764045715,-584,-1892,525,113036,0
40.4667444229126,-616,-1894,506,113082,0
40.50669050216675,-621,-1893,516,113117,0
40.54738187789917,-562,-1912,500,113101,0
40.58671283721924,-565,-1902,491,112846,0
40.62672734260559,-567,-1901,513,112644,0
40.66677236557007,-568,-1900,506,112645,0
40.70566964149475,-594,-1898,513,112697,0
40.74635624885559,-598,-1900,514,112718,0
40.78568911552429,-593,-1907,518,112761,0
40.825735092163086,-575,-1890,510,112774,0
40.86570906639099,-573,-1901,505,112744,0
40.90567469596863,-586,-1904,505,112792,0
40.94574809074402,-591,-1894,501,112841,0
40.98570251464844,-600,-1885,520,112894,0
41.025718688964844,-585,-1894,508,112887,0
41.065728187561035,-569,-1901,499,112897,0
41.10573983192444,-606,-1896,502,112929,0
41.14572882652283,-591,-1897,525,113000,0
41.18681025505066,-572,-1908,501,112998,0
41.22482085227966,-600,-1881,504,112810,0
41.26471471786499,-580,-1895,505,112660,0
41.304704904556274,-591,-1892,520,112651,0
41.3453905582428,-603,-1886,534,112691,0
41.38471341133118,-564,-1897,515,112790,0
41.42472863197327,-584,-1902,497,112837,0
41.46470332145691,-588,-1894,505,112821,0
41.50472593307495,-559,-1906,512,112806,0
41.54472827911377,-597,-1896,503,112792,0
41.58494544029236,-584,-1899,518,112844,0
41.625229835510254,-583,-1901,510,112835,0
41.66470241546631,-596,-1894,501,112840,0
41.70468544960022,-578,-1903,515,112863,0
41.74411702156067,-589,-1892,507,112913,0
41.78375196456909,-607,-1891,513,112938,0
41.8237144947052,-583,-1907,515,112902,0
41.86370515823364,-583,-1888,499,112726,0
41.90374279022217,-594,-1895,501,112549,0
41.943711042404175,-592,-1887,519,112553,0
41.983757972717285,-593,-1905,510,112609,0
42.02371549606323,-602,-1895,501,112671,0
42.06370663642883,-581,-1901,511,112687,0
42.10370683670044,-577,-1906,498,112689,0
42.143675088882446,-582,-1905,509,112686,0
42.183876276016235,-587,-1896,513,112705,0
42.223979234695435,-590,-1903,509,112795,0
42.26371884346008,-588,-1892,512,112861,0
42.30272173881531,-582,-1893,510,112918,0
42.3427095413208,-602,-1897,505,112955,0
42.382763385772705,-587,-1896,509,113008,0
42.42275905609131,-599,-1894,516,113045,0
42.46272826194763,-609,-1894,522,113028,0
42.50271201133728,-579,-1897,489,112906,0
42.54273056983948,-594,-1894,497,112668,0
42.583555459976196,-605,-1892,508,112550,0
42.622756004333496,-589,-1894,510,112505,0
42.66276836395264,-589,-1898,504,112492,0
42.70275831222534,-605,-1908,509,112489,0
42.742762088775635,-583,-1902,498,112495,0
42.7831015586853,-577,-1906,505,112408,0
42.82171654701233,-589,-1882,521,112279,0
42.86172962188721,-584,-1890,505,112261,0
42.90178465843201,-608,-1889,515,112286,0
42.94172811508179,-593,-1895,510,112325,0
42.982218503952026,-582,-1893,522,112367,0
43.02194166183472,-589,-1882,514,112425,0
43.061721324920654,-600,-1886,514,112489,0
43.101733922958374,-606,-1898,525,112510,0
43.14173221588135,-585,-1910,515,112445,0
43.18170166015625,-590,-1888,520,112245,0
43.22171425819397,-589,-1892,523,112097,0
43.26173424720764,-603,-1891,528,112159,0
43.301711320877075,-615,-1883,531,112242,0
43.34074902534485,-586,-1896,529,112330,0
43.380797386169434,-592,-1893,521,112384,0
43.420777559280396,-590,-1901,512,112332,0
43.460734128952026,-580,-1891,529,112296,0
43.50076603889465,-599,-1896,514,112321,0
43.540727376937866,-602,-1895,519,112391,0
43.58072352409363,-582,-1887,520,112457,0
43.62072539329529,-586,-1894,525,112525,0
43.66070771217346,-594,-1892,530,112539,0
43.700711250305176,-594,-1900,531,112579,0
43.74074602127075,-609,-1883,535,112671,0
43.78070664405823,-595,-1898,522,112715,0
43.82071018218994,-565,-1892,505,112642,0
43.859748125076294,-576,-1885,517,112432,0
43.89972114562988,-601,-1900,520,112362,0
43.93976616859436,-590,-1890,529,112423,0
43.97977614402771,-607,-1878,533,112510,0
44.019736766815186,-593,-1885,524,112548,0
44.05980348587036,-577,-1895,509,112542,0
44.099705934524536,-581,-1900,509,112489,0
44.139723777770996,-594,-1900,526,112446,0
44.179848194122314,-604,-1886,530,112470,0
44.21977949142456,-608,-1890,524,112487,0
44.25974369049072,-586,-1886,523,112518,0
44.29972720146179,-576,-1894,521,112540,0
44.33971905708313,-601,-1895,516,112600,0
44.379732608795166,-597,-1886,526,112638,0
44.432979106903076,-600,-1892,526,112657,0
44.45888018608093,-591,-1899,508,112614,0
44.49873661994934,-586,-1891,510,112377,0
44.538745164871216,-602,-1901,510,112265,0
44.578784227371216,-580,-1895,514,112304,0
44.619351863861084,-604,-1885,524,112402,0
44.65876579284668,-592,-1898,513,112451,0
44.69874811172485,-575,-1898,497,112484,0
44.73871397972107,-586,-1898,504,112460,0
44.77874231338501,-568,-1892,515,112464,0
44.819387674331665,-591,-1899,512,112480,0
44.85876202583313,-612,-1891,511,112564,0
44.89883589744568,-575,-1890,514,112623,0
44.93779706954956,-600,-1890,506,112678,0
44.97776007652283,-592,-1892,513,112722,0
45.01806831359863,-587,-1899,510,112766,0
45.05772662162781,-598,-1887,524,112802,0
45.09773063659668,-583,-1909,520,112819,0
45.13773846626282,-581,-1892,488,112672,0
45.17776083946228,-595,-1890,510,112428,0
45.21778964996338,-595,-1894,507,112366,0
45.25778794288635,-595,-1892,517,112387,0
45.297728538513184,-593,-1895,516,112433,0
45.337748527526855,-591,-1897,509,112495,0
45.37776565551758,-587,-1888,500,112536,0
45.417773723602295,-566,-1897,508,112550,0
45.457772731781006,-598,-1894,508,112572,0
45.496726751327515,-593,-1896,505,112641,0
45.5367751121521,-592,-1897,504,112717,0
45.5767707824707,-586,-1885,500,112802,0
45.61674785614014,-573,-1897,506,112867,0
45.65673303604126,-608,-1884,512,112938,0
45.696763038635254,-597,-1896,509,113013,0
45.73673868179321,-594,-1894,519,113074,0
45.776777505874634,-594,-1897,502,113024,0
45.81674265861511,-582,-1880,504,112815,0
45.85678291320801,-601,-1895,509,112726,0
45.89684081077576,-594,-1894,512,112767,0
45.93674969673157,-590,-1893,525,112880,0
45.97674202919006,-586,-1892,506,112945,0
46.015751361846924,-588,-1902,508,113006,0
46.055840730667114,-571,-1900,506,113033,0
46.09577465057373,-573,-1907,513,113072,0
46.13576340675354,-597,-1888,511,113153,0
46.17601776123047,-595,-1895,509,113228,0
46.21573305130005,-569,-1903,508,113337,0
46.255773305892944,-590,-1898,504,113401,0
46.29573726654053,-578,-1895,512,113445,0
46.336352825164795,-601,-1894,516,113482,0
46.37579607963562,-595,-1891,519,113550,0
46.415756702423096,-583,-1908,511,113583,0
46.45601201057434,-586,-1886,502,113487,0
46.495816469192505,-579,-1892,514,113349,0
46.53574848175049,-586,-1896,503,113377,0
46.5748016834259,-612,-1898,522,113462,0
46.6156907081604,-581,-1889,517,113520,0
46.654993772506714,-585,-1900,520,113587,0
46.694742918014526,-592,-1894,501,113616,0
46.73478126525879,-569,-1896,518,113625,0
46.77514696121216,-584,-1896,517,113662,0
46.81473779678345,-598,-1889,518,113696,0
46.85476064682007,-579,-1898,508,113763,0
46.89479398727417,-594,-1894,513,113771,0
46.93537926673889,-583,-1896,519,113826,0
46.97476148605347,-591,-1895,509,113846,0
47.01475930213928,-622,-1886,529,113894,0
47.05517649650574,-572,-1904,520,113945,0
47.093782901763916,-585,-1883,492,113826,0
47.133761405944824,-594,-1886,521,113663,0
47.17376375198364,-583,-1896,505,113655,0
47.213767766952515,-609,-1893,521,113729,0
47.25375294685364,-589,-1886,529,113774,0
47.294753551483154,-578,-1896,514,113809,0
47.33373689651489,-588,-1899,505,113737,0
47.37374019622803,-578,-1900,509,113684,0
47.4137487411499,-586,-1896,513,113641,0
47.45375323295593,-605,-1890,510,113617,0
47.49378299713135,-592,-1894,512,113665,0
47.53379988670349,-589,-1891,512,113691,0
47.573821783065796,-587,-1897,512,113735,0
47.613855838775635,-596,-1895,517,113737,0
47.65277552604675,-603,-1881,515,113744,0
47.6928026676178,-593,-1892,526,113771,0
47.732747077941895,-598,-1903,500,113702,0
47.77282094955444,-586,-1885,506,113546,0
47.8127555847168,-601,-1888,516,113460,0
47.85277509689331,-608,-1897,520,113500,0
47.89275908470154,-591,-1891,527,113545,0
47.93274712562561,-591,-1894,515,113579,0
47.972750663757324,-599,-1898,508,113585,0
48.012781620025635,-574,-1896,509,113587,0
48.05277109146118,-584,-1897,515,113566,0
48.09286975860596,-605,-1881,521,113592,0
48.13279891014099,-596,-1888,517,113666,0
48.171772956848145,-582,-1900,509,113707,0
48.21183681488037,-594,-1896,516,113748,0
48.251781702041626,-591,-1897,516,113791,0
48.29177260398865,-599,-1901,516,113813,0
48.33182978630066,-614,-1889,523,113840,0
48.3717987537384,-582,-1898,520,113858,0
48.41175723075867,-590,-1893,500,113752,0
48.4517719745636,-584,-1892,512,113572,0
48.49224400520325,-605,-1894,525,113527,0
48.531826972961426,-596,-1894,513,113557,0
48.57177233695984,-579,-1893,524,113639,0
48.61179566383362,-604,-1895,512,113686,0
48.6517448425293,-577,-1898,512,113740,0
48.691766023635864,-582,-1901,513,113740,0
48.73079252243042,-589,-1902,507,113772,0
48.77091646194458,-589,-1888,515,113803,0
48.81078028678894,-594,-1898,515,113859,0
48.851189374923706,-582,-1894,524,113937,0
48.890860080718994,-582,-1890,519,113979,0
48.930938720703125,-594,-1903,519,114017,0
48.97078490257263,-611,-1890,507,114039,0
49.01082181930542,-579,-1893,531,114062,0
49.05079388618469,-595,-1904,503,113976,0
49.0908145904541,-585,-1895,524,113822,0
49.130847692489624,-590,-1893,525,113751,0
49.17077827453613,-603,-1899,507,113836,0
49.21077489852905,-594,-1883,532,113904,0
49.24976682662964,-584,-1897,519,113966,0
49.289889335632324,-577,-1891,511,113983,0
49.32989144325256,-568,-1907,528,113966,0
49.36987590789795,-572,-1908,509,113982,0
49.409751892089844,-582,-1891,513,114008,0
49.44983506202698,-578,-1903,518,114051,0
49.4897665977478,-580,-1897,517,114069,0
49.529839754104614,-566,-1895,509,114082,0
49.56979012489319,-586,-1901,513,114097,0
49.609776973724365,-595,-1892,524,114111,0
49.649781703948975,-575,-1908,521,114136,0
49.68976068496704,-575,-1886,491,114088,0
49.7298367023468,-572,-1883,518,113919,0
49.76881146430969,-599,-1898,502,113822,0
49.80888056755066,-579,-1902,514,113828,0
49.84878873825073,-582,-1887,520,113901,0
49.88879108428955,-588,-1891,517,113916,0
49.92879271507263,-569,-1896,515,113911,0
49.96879506111145,-582,-1896,515,113833,0
50.008830070495605,-581,-1898,512,113786,0
50.048815965652466,-571,-1899,516,113770,0
50.08879518508911,-585,-1891,509,113796,0
50.12883162498474,-574,-1900,504,113795,0
50.168829917907715,-571,-1897,502,113821,0
50.20880746841431,-570,-1898,504,113854,0
50.247833251953125,-586,-1906,515,113870,0
50.28779101371765,-577,-1906,508,113852,0
50.32783007621765,-575,-1904,498,113719,0
50.36778211593628,-566,-1900,504,113538,0
50.407806158065796,-597,-1902,497,113463,0
50.447773694992065,-582,-1901,511,113493,0
50.48779654502869,-585,-1893,511,113501,0
50.5288450717926,-581,-1898,504,113507,0
50.56782913208008,-569,-1910,498,113451,0
50.607825756073,-576,-1906,502,113430,0
50.64792561531067,-581,-1895,509,113409,0
50.68781352043152,-577,-1902,494,113486,0
50.72798013687134,-604,-1905,500,113518,0
50.76679968833923,-556,-1904,504,113553,0
50.80682945251465,-587,-1896,504,113574,0
50.84681558609009,-595,-1897,498,113617,0
50.88682198524475,-584,-1896,512,113644,0
50.92689037322998,-601,-1908,506,113612,0
50.96682024002075,-559,-1903,495,113456,0
51.00683617591858,-593,-1896,503,113290,0
51.04681706428528,-603,-1894,510,113239,0
51.08678078651428,-580,-1894,524,113276,0
51.126850605010986,-610,-1888,512,113285,0
51.166852712631226,-592,-1903,508,113351,0
51.206833362579346,-578,-1906,496,113385,0
51.24596166610718,-591,-1893,511,113380,0
51.28581094741821,-566,-1897,513,113411,0
51.32581949234009,-580,-1897,506,113456,0
51.36583065986633,-605,-1890,514,113513,0
51.40591502189636,-568,-1907,515,113570,0
51.445817708969116,-581,-1897,507,113618,0
51.485814571380615,-597,-1888,499,113638,0
51.525837421417236,-564,-1894,526,113679,0
51.565788984298706,-588,-1909,507,113644,0
51.60576772689819,-588,-1885,499,113466,0
51.64585065841675,-583,-1896,511,113337,0
51.685879707336426,-605,-1891,514,113376,0
51.725823640823364,-577,-1903,538,113439,0
51.764811992645264,-588,-1896,517,113491,0
51.80480074882507,-584,-1894,517,113531,0
51.84478807449341,-566,-1895,505,113513,0
51.88482666015625,-573,-1900,514,113489,0
51.92498445510864,-585,-1898,514,113525,0
51.96483898162842,-582,-1896,520,113563,0
52.004820108413696,-586,-1891,514,113581,0
52.04480576515198,-568,-1900,523,113611,0
52.084843158721924,-583,-1891,520,113641,0
52.124823808670044,-592,-1892,526,113682,0
52.164926528930664,-587,-1889,529,113729,0
52.20489549636841,-581,-1901,503,113718,0
52.24387216567993,-586,-1881,518,113566,0
52.2837929725647,-573,-1891,518,113454,0
52.32378959655762,-597,-1895,512,113481,0
52.36384415626526,-595,-1885,539,113520,0
52.403818130493164,-583,-1885,523,113554,0
52.44381093978882,-581,-1887,521,113572,0
52.48381805419922,-570,-1890,520,113519,0
52.52412986755371,-584,-1887,527,113477,0
52.56423735618591,-598,-1900,533,113468,0
52.603816509246826,-579,-1894,522,113488,0
52.643805742263794,-579,-1901,520,113549,0
52.683825969696045,-591,-1900,520,113591,0
52.72385263442993,-571,-1896,522,113619,0
52.7629120349884,-587,-1903,517,113647,0
52.802807092666626,-602,-1891,526,113645,0
52.842796325683594,-567,-1910,507,113594,0
52.88284873962402,-581,-1899,513,113423,0
52.922810792922974,-596,-1891,526,113274,0
52.962931632995605,-600,-1898,517,113274,0
53.00283765792847,-588,-1894,533,113269,0
53.042896032333374,-599,-1879,520,113272,0
53.08289051055908,-585,-1892,517,113264,0
53.122875928878784,-583,-1901,507,113224,0
53.16281986236572,-574,-1897,517,113187,0
53.20296001434326,-590,-1902,517,113207,0
53.242915868759155,-592,-1898,508,113273,0
53.28193545341492,-576,-1901,503,113315,0
53.32184028625488,-578,-1902,513,113332,0
53.361865282058716,-583,-1904,510,113367,0
53.40185308456421,-581,-1896,516,113394,0
53.44184160232544,-598,-1896,514,113418,0
53.481916189193726,-595,-1895,515,113448,0
53.52184748649597,-590,-1904,503,113392,0
53.56190609931946,-569,-1884,508,113157,0
53.60185098648071,-589,-1896,513,112959,0
53.641812324523926,-600,-1887,516,112930,0
53.68188524246216,-588,-1886,519,112889,0
53.72185707092285,-604,-1886,515,112930,0
53.761818170547485,-588,-1900,507,112967,0
53.80084180831909,-572,-1902,502,112946,0
53.84087872505188,-580,-1897,506,112909,0
53.88083338737488,-597,-1898,519,112922,0
53.9208722114563,-588,-1899,517,112954,0
53.9608428478241,-596,-1890,521,112992,0
54.00080347061157,-583,-1904,512,113009,0
54.04178595542908,-590,-1887,517,113006,0
54.08108472824097,-588,-1890,513,112995,0
54.12086367607117,-587,-1902,524,112972,0
54.16091203689575,-583,-1892,526,112951,0
54.2008330821991,-593,-1907,525,112885,0
54.240832567214966,-578,-1891,503,112750,0
54.281139612197876,-583,-1874,528,112504,0
54.319843769073486,-592,-1891,511,112408,0
54.36027717590332,-603,-1893,533,112425,0
54.39988565444946,-591,-1879,521,112471,0
54.439950466156006,-586,-1898,524,112532,0
54.47988677024841,-579,-1896,517,112597,0
54.51986575126648,-564,-1895,517,112631,0
54.55981779098511,-584,-1896,517,112671,0
54.60005974769592,-583,-1892,529,112723,0
54.63984823226929,-571,-1898,521,112771,0
54.679855823516846,-587,-1900,515,112864,0
54.71985673904419,-578,-1899,514,112913,0
54.77426099777222,-579,-1896,509,113006,0
54.80059266090393,-599,-1890,524,113061,0
54.83885455131531,-590,-1889,519,113133,0
54.87882208824158,-562,-1895,522,113192,0
54.918860912323,-595,-1897,505,113218,0
54.95892953872681,-569,-1891,520,113082,0
54.99909019470215,-583,-1887,520,112925,0
55.03881907463074,-601,-1891,509,112887,0
55.07886266708374,-579,-1895,539,112894,0
55.11883521080017,-594,-1890,514,112938,0
55.15884017944336,-577,-1899,505,112970,0
55.198904037475586,-567,-1901,517,112984,0
55.23945903778076,-578,-1907,516,112961,0
55.27886509895325,-585,-1898,517,113003,0
55.318832874298096,-587,-1892,517,113074,0
55.35785698890686,-584,-1887,513,113121,0
55.39802885055542,-568,-1900,520,113153,0
55.43791937828064,-599,-1900,516,113174,0
55.47786259651184,-597,-1893,528,113216,0
55.51787495613098,-583,-1896,519,113252,0
55.55787968635559,-601,-1888,519,113286,0
55.59785175323486,-592,-1908,528,113282,0
55.63787388801575,-564,-1899,511,113165,0
55.67786192893982,-604,-1888,512,112945,0
55.717886209487915,-581,-1899,512,112877,0
55.7578501701355,-599,-1900,527,112911,0
55.79783487319946,-601,-1884,523,112973,0
55.83797073364258,-577,-1899,511,112988,0
55.87683081626892,-598,-1889,508,112942,0
55.916889667510986,-590,-1904,517,112864,0
55.95689678192139,-575,-1901,517,112837,0
55.9968740940094,-602,-1901,508,112824,0
56.037153244018555,-587,-1889,520,112838,0
56.07692766189575,-587,-1895,509,112869,0
56.1168954372406,-592,-1896,513,112875,0
56.15697145462036,-577,-1895,520,112836,0
56.1968789100647,-596,-1892,520,112821,0
56.23693537712097,-610,-1894,516,112825,0
56.2768874168396,-579,-1897,537,112892,0
56.316888093948364,-600,-1899,522,112889,0
56.35585880279541,-578,-1887,504,112738,0
56.39587211608887,-583,-1894,503,112539,0
56.43585228919983,-603,-1889,517,112541,0
56.47584915161133,-576,-1903,529,112587,0
56.515878438949585,-603,-1892,517,112621,0
56.55588221549988,-588,-1902,523,112694,0
56.595876932144165,-576,-1905,514,112710,0
56.63603067398071,-592,-1898,518,112699,0
56.675861835479736,-569,-1902,523,112702,0
56.71589660644531,-585,-1888,521,112735,0
56.755943775177,-597,-1893,523,112750,0
56.79599857330322,-570,-1902,517,112837,0
56.83636999130249,-600,-1885,528,112896,0
56.87485909461975,-580,-1889,519,112925,0
56.91484618186951,-584,-1894,516,112954,0
56.9548544883728,-601,-1884,509,112984,0
56.99486446380615,-575,-1898,529,113012,0
57.03492474555969,-587,-1907,509,113013,0
57.07486629486084,-577,-1894,504,112853,0
57.11583971977234,-582,-1882,518,112665,0
57.1548957824707,-608,-1890,514,112630,0
57.194926500320435,-605,-1901,535,112636,0
57.235352754592896,-579,-1891,525,112687,0
57.274861574172974,-583,-1906,522,112709,0
57.31496810913086,-566,-1902,511,112755,0
57.35490274429321,-578,-1897,519,112750,0
57.39384865760803,-598,-1896,519,112766,0
57.433871269226074,-592,-1893,525,112826,0
57.4739351272583,-582,-1894,518,112869,0
57.51391315460205,-590,-1888,513,112918,0
57.55393409729004,-575,-1893,524,112962,0
57.593910932540894,-604,-1892,525,113032,0
57.633949518203735,-600,-1898,522,113048,0
57.67389941215515,-587,-1894,523,113087,0
57.713905334472656,-590,-1902,527,113095,0
57.75386953353882,-574,-1892,498,113052,0
57.79390621185303,-580,-1883,530,112867,0
57.8339102268219,-588,-1899,512,112810,0
57.87391209602356,-576,-1892,530,112875,0
57.912869930267334,-585,-1892,529,112927,0
57.952903747558594,-569,-1900,524,112975,0
57.99297308921814,-578,-1905,513,113007,0
58.032947063446045,-585,-1890,523,113024,0
58.07290577888489,-581,-1898,523,113024,0
58.112860679626465,-597,-1893,527,113075,0
58.15291881561279,-581,-1887,526,113120,0
58.192877531051636,-581,-1890,518,113164,0
58.23292589187622,-595,-1903,531,113158,0
58.27286887168884,-576,-1891,526,113216,0
58.31286597251892,-606,-1892,524,113215,0
58.352856397628784,-590,-1885,534,113286,0
58.39286136627197,-576,-1900,530,113326,0
58.431889295578,-586,-1886,519,113252,0
58.47189664840698,-567,-1888,535,113076,0
58.511868953704834,-597,-1885,519,113010,0
58.55187463760376,-598,-1893,539,113033,0
58.59195065498352,-577,-1883,538,113064,0
58.631909132003784,-593,-1889,523,113117,0
58.67258071899414,-576,-1895,518,113109,0
58.71196961402893,-572,-1891,521,113083,0
58.751919984817505,-591,-1892,530,113056,0
58.79188656806946,-592,-1898,539,113091,0
58.831915616989136,-599,-1891,529,113153,0
58.871896505355835,-580,-1887,520,113239,0
58.91193628311157,-571,-1899,529,113281,0
58.9508957862854,-599,-1893,522,113319,0
58.99104309082031,-585,-1889,535,113356,0
59.03087139129639,-591,-1889,518,113405,0
59.07231378555298,-601,-1878,540,113439,0
59.11088180541992,-592,-1901,531,113396,0
59.15088129043579,-586,-1884,522,113217,0
59.1908814907074,-601,-1883,542,113059,0
59.23088574409485,-607,-1887,538,113060,0
59.270965337753296,-606,-1887,550,113088,0
59.311660289764404,-606,-1883,544,113156,0
59.35088109970093,-580,-1900,540,113187,0
59.39088845252991,-576,-1894,516,113214,0
59.430859088897705,-601,-1887,540,113189,0
59.470616579055786,-623,-1885,543,113200,0
59.51040577888489,-590,-1878,532,113258,0
59.54994773864746,-596,-1887,536,113297,0
59.58991479873657,-596,-1892,531,113346,0
59.629918813705444,-603,-1894,547,113350,0
59.66995334625244,-584,-1886,552,113370,0
59.70992732048035,-590,-1891,542,113395,0
59.75000047683716,-597,-1879,546,113423,0
59.78994560241699,-606,-1891,544,113432,0
59.829856395721436,-597,-1887,527,113340,0
59.86989641189575,-591,-1878,541,113190,0
59.911150217056274,-601,-1880,541,113172,0
59.94893407821655,-623,-1882,550,113243,0
59.988951206207275,-602,-1881,549,113295,0
